timeDelta,accelX,accelY,accelZ,gyroX,gyroY,gyroZ,temperature
1.0,-1.2237045523305435e-05,-5.407332674368061e-06,2.8388496540432316e-05,-9.538618905979425e-07,7.63089512478354e-06,7.153964179484569e-07,25.38
1.0,-0.00010486128339915744,-4.624162772148802e-05,0.000244017418211194,4.683715717778191e-06,6.0778048989362554e-05,-2.9350290756558665e-07,25.47
1.0,-0.00045056807411764365,-0.0001981527162742867,0.0010511360182101266,7.008769663531555e-05,0.0002405353472585032,-2.1455231280201747e-05,25.42
1.0,-0.001326009587468038,-0.0005813281169522687,0.003098965065145037,0.00032099429829887606,0.0006457670017213676,-9.949558692812975e-05,25.33
1.0,-0.0030660427007394484,-0.0013400879824653894,0.007173603479928469,0.000920552605868325,0.0013625186188893639,-0.0002706256193727192,25.28
1.0,-0.00601459171664093,-0.0026222727810297215,0.014081927973585857,0.002012096634054861,0.002475935507459135,-0.0005572966826261987,25.38
1.0,-0.01048865991012962,-0.004564284718856782,0.024566153707922405,0.003689949764652896,0.004093099638775459,-0.0009774881392893768,25.38
1.0,-0.016753830192040475,-0.007280092737134582,0.03924378314419254,0.005980077662566371,0.006330381225512086,-0.0015616797973381125,25.47
1.0,-0.02500820611354479,-0.01085426981497944,0.0585690602164176,0.008825709543584113,0.009286777627806685,-0.0023508111586439087,25.38
1.0,-0.03537230608622694,-0.015338449892499889,0.08281238600026002,0.012101707923719757,0.013031480466279041,-0.003368549701933798,25.33
1.0,-0.0478846094395317,-0.02074981165600995,0.11205409599542882,0.01565123783490358,0.017612374381076396,-0.004599435578702512,25.52
1.0,-0.06250297226927418,-0.02707144018503883,0.14618997170823483,0.019310601721520368,0.02307848060095829,-0.005996501952336789,25.33
1.0,-0.07911102665087943,-0.03425460392632294,0.18494555090021467,0.022906626275854772,0.029481538489742994,-0.007505350417474881,25.33
1.0,-0.09752764742092254,-0.04222193032146115,0.22789633346571742,0.026248342908455458,0.036848105273801134,-0.009084541458108567,25.33
1.0,-0.11751738066954856,-0.05087127105094491,0.27449204165369034,0.029151191004879937,0.045155089998011724,-0.010713790158089289,25.28
1.0,-0.13880087783040332,-0.06008093280352027,0.32408300376060706,0.03148530762383655,0.05432266848306442,-0.01239338929451933,25.28
1.0,-0.161065877191907,-0.06971557235009276,0.37594723197224633,0.033190025027706606,0.06421704162860388,-0.01413673910811872,25.28
1.0,-0.18397945254007478,-0.07963169770350867,0.42931808669838717,0.03425783532690408,0.07465430532643128,-0.015956298570510976,25.38
1.0,-0.2072006030596462,-0.08968298335633929,0.48341136268850177,0.034730697045412005,0.0854002807828985,-0.017850858326904546,25.33
1.0,-0.23039131030992277,-0.0997253722661166,0.5374497692284638,0.03469434224473384,0.09617844067993307,-0.019804162720952655,25.33
1.0,-0.2532260365860083,-0.1096208821738226,0.5906840680257331,0.034256458858110156,0.10669388732350862,-0.021799379200991936,25.42
1.0,-0.2754002634867687,-0.11924006783960554,0.642410792580889,0.03352562878473364,0.11666622907449904,-0.023833608794691923,25.33
1.0,-0.29663756066674574,-0.12846455139811672,0.6919869333090012,0.0325961283081774,0.12587268575937063,-0.025923265908483553,25.38
1.0,-0.3166954068366599,-0.13718979528522152,0.7388425591346536,0.03154315208697798,0.13418148309548428,-0.028107903786032482,25.28
1.0,-0.3353695552720331,-0.1453271594915508,0.7824917894957714,0.03042846968733173,0.1415387942900427,-0.030434675732466325,25.38
1.0,-0.35249561960002634,-0.152805118440927,0.8225406929434534,0.029293866488229754,0.14793898151593754,-0.03291872276668795,25.38
1.0,-0.3679490263891098,-0.15956978204571393,0.858690429178989,0.028139654220793193,0.1534263418067758,-0.03551879366027882,25.33
1.0,-0.3816452185245054,-0.16558454404641693,0.890736814831409,0.026920994869095445,0.15809408458353968,-0.03815076302376924,25.33
1.0,-0.3935390020692497,-0.17082892081918555,0.9185680390280279,0.025567617784429557,0.1620441500088954,-0.040724581858868035,25.33
1.0,-0.40362200795811004,-0.17529718713066658,0.9421601557826389,0.024011798894706317,0.1653485951950784,-0.0431832464024322,25.33
1.0,-0.4119193425149037,-0.17899752483974757,0.9615701500873821,0.022225498411996926,0.16805621899661927,-0.04553008976095118,25.33
1.0,-0.4184861933301895,-0.1819513934545091,0.9769272549617231,0.02023391551622557,0.1702253299824965,-0.047824385525660255,25.28
1.0,-0.4234041732637415,-0.18419234140081323,0.9884233959215786,0.018079428958629157,0.17193083749057914,-0.05013668448363544,25.28
1.0,-0.4267774662742537,-0.18576443556189512,0.9963038556925541,0.01579727781239151,0.1732365214403373,-0.05250694104680962,25.38
1.0,-0.42872910064306763,-0.18672043572590166,1.0008580537195193,0.013443091215362885,0.17417683412562146,-0.05494081397331799,25.47
1.0,-0.429397187848814,-0.1871194735409143,1.002409558750033,0.01111514133788903,0.17476382376334942,-0.05741985875426241,25.42
1.0,-0.4289312116652574,-0.18702486349081043,1.0013059054056723,0.008937169611771567,0.17499135559255477,-0.059908065002400736,25.42
1.0,-0.42748820711679797,-0.18650263612809345,0.9979092835675968,0.007040728500533083,0.17483049629708214,-0.06236190082658002,25.33
1.0,-0.42522800110299797,-0.1856204921488177,0.9925881161271942,0.005560861485790764,0.1742288319314631,-0.06473161763310241,25.38
1.0,-0.42230857237132297,-0.1844463625610352,0.9857094792347572,0.004611242700632046,0.1731147936093786,-0.06694816430030388,25.38
1.0,-0.41888311563273545,-0.18304642229649773,0.9776319583360383,0.004241938605107693,0.1714085459714063,-0.06892114972069169,25.38
1.0,-0.41509760149712605,-0.18148344602353791,0.9686982443767285,0.004420579383576562,0.16904306225783056,-0.07056402867524932,25.28
1.0,-0.41108783085073886,-0.17981556145946287,0.9592291583707889,0.005053826393750152,0.1659888481366192,-0.07182927521401047,25.52
1.0,-0.40697737885137447,-0.17809517137988165,0.9495203561257369,0.006027052582700717,0.16226966161579603,-0.07272114214982608,25.33
1.0,-0.40287676877199213,-0.1763683962947622,0.9398395090508229,0.007224411951924434,0.1579586529299485,-0.07326943223301322,25.33
1.0,-0.398882722528126,-0.17467474906889138,0.9304228327080966,0.008536100867335757,0.15316564414669664,-0.07349178698076658,25.38
1.0,-0.39507781408057163,-0.1730472602979833,0.9214719551752703,0.009873117478824705,0.14803261254464886,-0.07338023028629106,25.28
1.0,-0.3915311908064919,-0.17151359195602175,0.9131523746027345,0.011166361520385186,0.14272075395593553,-0.072905825195447,25.38
1.0,-0.3882992482859074,-0.1700970145346781,0.9055945051954319,0.0123509970796352,0.13737731191985053,-0.0720347382962439,25.38
1.0,-0.3854254321614735,-0.16881630708551976,0.8988957560966311,0.013362329368326398,0.13210763608027237,-0.07075111718922628,25.38
1.0,-0.38294001098396013,-0.16768533372360198,0.8931216679435853,0.01414104534705598,0.12697115911102885,-0.0690578273846775,25.33
1.0,-0.3808605957300845,-0.16671289163218683,0.8883070699112795,0.014638348196490392,0.1219926293168514,-0.06696493761110657,25.42
1.0,-0.3791931571284595,-0.16590276118669264,0.884458953082986,0.014824207142604651,0.11718346305535274,-0.06450010045278706,25.42
1.0,-0.37793314303778697,-0.16525426726189837,0.8815609814974165,0.014706305556917909,0.11257185602441427,-0.06172332420533245,25.33
1.0,-0.37706680354116573,-0.16476352126892263,0.8795774072114634,0.014340006572269191,0.10821585374004064,-0.05871932898208092,25.42
1.0,-0.3765726386251976,-0.1644245955903306,0.8784550102309564,0.013802461863838017,0.10418588931827816,-0.05557983343145114,25.47
1.0,-0.376422744086168,-0.1642298330738359,0.8781254588292358,0.013157298019795838,0.10053857311197947,-0.05239404691145005,25.38
1.0,-0.37658444009971703,-0.16416956501094573,0.8785098233803668,0.012448332293713062,0.09730005737981795,-0.0492463870811703,25.38
1.0,-0.3770219968176802,-0.16423197151476493,0.8795224096021013,0.011713076056103762,0.09446873949401705,-0.04621173906962797,25.33
1.0,-0.3776975453798351,-0.16440302993159844,0.8810714778781061,0.010991341169952536,0.09203249764211018,-0.043352291228868946,25.33
1.0,-0.3785714786453829,-0.1646667779591158,0.8830596526539576,0.010321179260985983,0.08996972944741088,-0.040723320609018926,25.42
1.0,-0.37960337510664705,-0.16500651596165233,0.885387982837816,0.00972715806381831,0.08823132270151669,-0.03837621623345779,25.28
1.0,-0.3807532743308209,-0.16540562987012605,0.8879618470511635,0.009219673615767584,0.08674358731456411,-0.03635566374346379,25.28
1.0,-0.3819825393400903,-0.16584720148698612,0.8906935781761705,0.008814606476102597,0.08543847681428003,-0.034694841104192124,25.47
1.0,-0.383254451469472,-0.1663143991983813,0.8935014962853898,0.008547968790281074,0.08428013671355439,-0.033408011695861536,25.33
1.0,-0.384534920543568,-0.16679203197734271,0.8963091188266338,0.008467264725585911,0.08327322836350255,-0.03248630588089582,25.33
1.0,-0.38579301598572324,-0.16726720500923742,0.8990463067450802,0.008616205949670785,0.08245592596223575,-0.03188534455046295,25.42
1.0,-0.387001198233351,-0.16772857820401038,0.9016515900157311,0.009019360845019333,0.08188411866571757,-0.03151428027997838,25.33
1.0,-0.3881356059259155,-0.1681656019505188,0.9040746142946698,0.009664555747613168,0.08161111897232294,-0.0312609987958658,25.38
1.0,-0.38917646668083267,-0.1685686941284067,0.9062774711633373,0.010505014532957135,0.08167190379266631,-0.031029148476293456,25.47
1.0,-0.3901084648476491,-0.1689300879401049,0.9082342999561295,0.01148618545729917,0.0820791411269338,-0.030744522785691928,25.28
1.0,-0.3909208924631148,-0.16924448713593693,0.9099300698152217,0.012569395721904554,0.08282984119260559,-0.03034629623479462,25.42
1.0,-0.3916072118634742,-0.1695086801542366,0.9113591483784945,0.013735307127649289,0.08390968139732685,-0.02979518327046596,25.42
1.0,-0.3921639528267131,-0.16972059646003368,0.9125234007054894,0.014972421664012959,0.0852741416544081,-0.02909285415490645,25.33
1.0,-0.39258962219349586,-0.16987937355710453,0.9134298273311445,0.016270436013091662,0.08682647919467983,-0.02827909359326305,25.42
1.0,-0.39288439485246685,-0.16998618751738245,0.9140885710635426,0.017626061807586482,0.08842482594024013,-0.027399285238862314,25.47
1.0,-0.3930503831498327,-0.1700442379928825,0.9145124961049377,0.019043802426670798,0.08992119472843342,-0.02647429951733908,25.38
1.0,-0.3930915468469353,-0.17005796556790012,0.9147178856036462,0.020523256887729113,0.09123186721457908,-0.025494620282046385,25.42
1.0,-0.3930131940621699,-0.17003266854818724,0.9147247023663958,0.022040262207545343,0.09239708544568766,-0.02443641166217416,25.42
1.0,-0.3928221226161418,-0.1699744306517142,0.9145560543534329,0.023533958080591576,0.09357775460393382,-0.02329288032111572,25.42
1.0,-0.39252770326800973,-0.1698895105733725,0.9142367578835456,0.024906566116695904,0.0950038532231753,-0.022102165005871054,25.42
1.0,-0.3921426228565424,-0.16978340231239714,0.9137911109390732,0.026033142395428893,0.09691641630013671,-0.020948564693687253,25.42
1.0,-0.3916824138884314,-0.16966060330533983,0.9132417512979019,0.026787598560732706,0.0995312360964153,-0.019949185036718817,25.33
1.0,-0.39116432504859494,-0.16952517749936602,0.9126105681517281,0.02708051337529265,0.10301320955731427,-0.019242916668186685,25.47
1.0,-0.39060590527085814,-0.1693811772242005,0.9119199193966746,0.02688393991360848,0.10744017171546093,-0.018956874490288586,25.38
1.0,-0.3900237914836758,-0.16923256076334028,0.911192905174789,0.026231205450545157,0.11278778713163008,-0.019162010107025406,25.38
1.0,-0.3894336165393329,-0.16908289408019445,0.9104525687495915,0.02519416506938752,0.11895570946296938,-0.019873718108003112,25.38
1.0,-0.38885036839384846,-0.16893509788257818,0.9097200838433147,0.02385618714781366,0.12578642167017104,-0.021078367510785782,25.42
1.0,-0.38828797018423744,-0.16879164896958238,0.9090134671329512,0.022311118018798683,0.13304895402541503,-0.022741191999729318,25.42
1.0,-0.3877586164374562,-0.16865516343321132,0.9083474627427743,0.020686802188148487,0.14042300076820668,-0.024820329115413056,25.42
1.0,-0.38727268451228936,-0.16852842244716845,0.907733131192893,0.0191515483690362,0.147496636228916,-0.027290538840317187,25.42
1.0,-0.38683884387020734,-0.16841357415645583,0.9071771626510785,0.017883668186491425,0.15377578554393423,-0.03014020407228359,25.38
1.0,-0.3864636730038836,-0.16831172210696319,0.9066820513461682,0.017038851917056057,0.15873538457206687,-0.033354049707023554,25.38
1.0,-0.3861508886991984,-0.16822375763057254,0.9062473186828096,0.016736452004257486,0.16190847557273455,-0.036904483110353,25.38
1.0,-0.38590096081244385,-0.16815149125215278,0.9058713298406712,0.017041532704301646,0.16296773751322008,-0.04074073843414937,25.38
1.0,-0.3857114369793771,-0.1680978330224794,0.9055526558627573,0.017941377462997316,0.161781707970485,-0.044771514688295835,25.38
1.0,-0.3855780154918053,-0.16806568751628742,0.9052902213163218,0.01934192301428103,0.15844624888478695,-0.0488607671749802,25.47
1.0,-0.38549604582068847,-0.1680562348199297,0.9050829018962224,0.021086187527470854,0.15327594090230204,-0.05285771052557433,25.42
1.0,-0.3854613202647272,-0.16806817976009433,0.9049293335473001,0.022979498737128786,0.1467578292548165,-0.05663152948882648,25.33
1.0,-0.3854698699616821,-0.1680984821171238,0.9048274573117513,0.024821559432175712,0.1394821024702861,-0.06006775686280289,25.42
1.0,-0.3855179073351031,-0.16814340340929587,0.9047739326093271,0.026453268324547714,0.13205038994242552,-0.06306563263256082,25.42
1.0,-0.3856022283035281,-0.16819904696531215,0.9047642986256712,0.02779620880579395,0.12498647416675941,-0.06556603691555948,25.33
1.0,-0.3857200131624596,-0.1682612555681822,0.9047934110081581,0.028833327376160664,0.11868455917084884,-0.06755704432334335,25.42
1.0,-0.3858681486100905,-0.1683249718955351,0.9048553313355974,0.029543297891960908,0.1134037834815895,-0.06904579473495487,25.38
1.0,-0.3860432640305664,-0.16838420909732182,0.9049427938466522,0.02988074297263881,0.10929133544366203,-0.07003593826427652,25.38
1.0,-0.3862421435239389,-0.16843340664495912,0.9050473633509748,0.029813155015496695,0.10639354449275645,-0.07052242870307764,25.38
1.0,-0.38646138446978767,-0.16846856349829342,0.9051609239203209,0.02934380256411746,0.10465045824501072,-0.07050466640484104,25.38
1.0,-0.3866965056106082,-0.16848690431313615,0.9052770013964037,0.028511652502207357,0.10390834362725508,-0.07000567241656432,25.42
1.0,-0.3869417959993825,-0.16848638736183613,0.9053907590905924,0.027384345460091424,0.10395098316358377,-0.06907426561034709,25.42
1.0,-0.3871913027963063,-0.16846606524025312,0.9054985308192528,0.026039610508228676,0.10453460194544076,-0.06777918056866816,25.38
1.0,-0.38743961485925316,-0.1684264532402455,0.90559768037171,0.02454606674424107,0.10541945355955547,-0.06620471169342244,25.38
1.0,-0.3876813831418785,-0.16836924181477445,0.905686451022901,0.022950864252418313,0.10640056538773288,-0.06443771170604554,25.28
1.0,-0.38791051741756877,-0.16829688028583106,0.9057638580041032,0.02126970651145799,0.10734410634523486,-0.06255417032332841,25.47
1.0,-0.38812056409677487,-0.16821252981538212,0.9058299769967132,0.01948553753251093,0.10821127728845963,-0.060613587378992584,25.38
1.0,-0.388306413006727,-0.16812023424641503,0.9058857283500658,0.01756500790316279,0.109060685375727,-0.05865921668608812,25.38
1.0,-0.3884661486979306,-0.16802507810810266,0.905931883958059,0.015479363645522356,0.11002954827815646,-0.056717045242636696,25.42
1.0,-0.38860127459518007,-0.1679331245194614,0.90596873755291,0.013215680773175894,0.11127564782834236,-0.05477719089532284,25.33
1.0,-0.38871476386555415,-0.16785094885562699,0.9059969262605204,0.010787052057373507,0.11289297724734786,-0.05277801379563541,25.33
1.0,-0.38880878980700406,-0.1677847977672658,0.9060179065893913,0.008245023198555957,0.11485594072150615,-0.05062664066237164,25.33
1.0,-0.38888402849796516,-0.16773983608027995,0.9060330421332546,0.005691432809047216,0.11703093232372896,-0.048242110521532766,25.47
1.0,-0.3889404418580316,-0.16772007875391357,0.9060424860448081,0.003272905962975192,0.11923656024958158,-0.04558920084640489,25.38
1.0,-0.3889781503783021,-0.16772871978057288,0.9060454127319096,0.0011416048624833084,0.12129761898124068,-0.042682791164949566,25.38
1.0,-0.3889973997202292,-0.16776812043993983,0.9060414269066771,-0.0005839301401947781,0.12306903279271446,-0.039564857061194114,25.52
1.0,-0.38899818691920535,-0.1678392574563542,0.9060317738180736,-0.001821031614778651,0.12444747183361882,-0.036284134636959314,25.42
1.0,-0.38898079300360794,-0.1679409965136704,0.9060194409147418,-0.002500539572875004,0.12537996641976817,-0.03288809997122036,25.42
1.0,-0.3889470397735877,-0.16806981757764303,0.9060080833610272,-0.002555967142306511,0.12585815878258527,-0.029410505212062617,25.28
1.0,-0.3889004982956747,-0.16822013729074606,0.906000468968046,-0.0019348589033757065,0.12590210825037754,-0.025864499603108493,25.28
1.0,-0.3888452946240129,-0.16838514719114242,0.9059977940664153,-0.0006202264955990711,0.12555587585371747,-0.022254839315450074,25.38
1.0,-0.3887852083130645,-0.16855818884618162,0.9060001820552598,0.0013406107249105972,0.12489433504869417,-0.01860321537667617,25.47
1.0,-0.3887234667933693,-0.1687339172871455,0.9060072632112907,0.00383233654929785,0.12402549734609648,-0.014977390307001447,25.38
1.0,-0.3886624680426829,-0.16890851637927418,0.9060181645927563,0.006709537106098341,0.12308558531557463,-0.011491242317703657,25.42
1.0,-0.38860405863563774,-0.16907955142076755,0.9060317239828054,0.009819240690278659,0.12222074434018249,-0.008263162694806729,25.52
1.0,-0.388550485646262,-0.16924601596536448,0.9060473522973386,0.012997398564712992,0.12155640280176334,-0.0053811657361492096,25.42
1.0,-0.3885045165764699,-0.16940783784376937,0.9060649386721665,0.016081632101030204,0.12118843330370241,-0.002898040334306169,25.38
1.0,-0.3884688266552183,-0.16956472352873628,0.9060836047142734,0.01892661208768308,0.12120168683811894,-0.0008321979724366729,25.38
1.0,-0.3884455726080754,-0.16971569326474553,0.9061015219966453,0.021402477106589414,0.12165901394289293,0.0008263064010210089,25.47
1.0,-0.38843575463810215,-0.16985951444473624,0.9061172554797833,0.023400177072629032,0.12256394106525437,0.002096711875192264,25.47
1.0,-0.38843880828647964,-0.16999494229123727,0.90613111378993,0.02484858412659798,0.12386647478576117,0.0029976914975625305,25.33
1.0,-0.3884531961401049,-0.17012044414773386,0.9061453653209373,0.025717763831216083,0.12549208074308427,0.0035523370972626975,25.33
1.0,-0.38847722813999497,-0.17023372435160689,0.9061633210789024,0.026006113113412294,0.12733858786570787,0.0037797238417517725,25.33
1.0,-0.38850928053012274,-0.17033158958317005,0.9061880362973878,0.025744125458156096,0.12926874860068016,0.0036726622227410918,25.47
1.0,-0.3885473276047637,-0.17041040812774697,0.9062211873301012,0.025016539317647905,0.1311205372096333,0.003192985091522004,25.47
1.0,-0.3885884718761191,-0.17046677051236023,0.9062623993283359,0.023949461812972684,0.13271951346905986,0.002293335426785381,25.47
1.0,-0.3886291907466763,-0.170497966138301,0.90630918434394,0.022655644512775377,0.13390242885490314,0.0009439960783407264,25.47
1.0,-0.38866577427719534,-0.17050219607719658,0.9063574355482001,0.021202356537347224,0.13454746242991855,-0.000851203877298739,25.52
1.0,-0.3886947653755212,-0.1704788883448719,0.9064024710186271,0.01962049508906532,0.13458707127076544,-0.0030422759441964663,25.42
1.0,-0.38871402864021776,-0.17042926489884977,0.9064406096968172,0.017926882024346554,0.13400975890654365,-0.005530285509136557,25.42
1.0,-0.3887235395546059,-0.1703566198732904,0.9064701299951555,0.01614680149202871,0.1328558577927831,-0.008194823570545462,25.42
1.0,-0.38872463925476924,-0.1702659281278894,0.9064902170440348,0.014313215482833572,0.13119488482971473,-0.010928297873595073,25.33
1.0,-0.38871901071833975,-0.17016295861749253,0.9064990652253665,0.012445006509327268,0.12909975806167567,-0.013637178128902245,25.38
1.0,-0.38870860863666923,-0.17005339017705814,0.9064934058643781,0.010547406665044744,0.1266429604607784,-0.01622762619090573,25.28
1.0,-0.3886956510473361,-0.16994230454912815,0.9064696718187396,0.008637466451713599,0.12389578648609115,-0.018617287693119898,25.47
1.0,-0.3886822984675628,-0.1698340789861896,0.9064254054875295,0.006763384657992609,0.1209060470645314,-0.020764806737091822,25.38
1.0,-0.38867013080224294,-0.1697326837136473,0.9063598674780868,0.0050017909166144,0.11767979279311451,-0.022678112242384144,25.38
1.0,-0.38865955078233927,-0.16964209239975514,0.9062742838956387,0.003429596281696587,0.11420083512191022,-0.02439792587889854,25.38
1.0,-0.3886499872381348,-0.1695660448355182,0.9061717762674905,0.002086016856326942,0.11047304871591736,-0.02598709910500637,25.33
1.0,-0.3886405013156113,-0.1695070141631543,0.9060558413641389,0.0009646861487735332,0.10654506264761184,-0.02752811929572325,25.33
1.0,-0.38862981536303387,-0.16946524870385626,0.9059285128149694,4.518804183928077e-05,0.1025038895163132,-0.029107876386541727,25.42
1.0,-0.38861616636634305,-0.16943894182967684,0.9057905923298578,-0.0006786266986277481,0.09845327749512331,-0.030800141430428918,25.33
1.0,-0.38859767501116865,-0.1694256208587676,0.9056434150599219,-0.0011925279903541512,0.09449579648727033,-0.03266037074982582,25.28
1.0,-0.3885730268490242,-0.16942337565932988,0.9054899262161968,-0.0014608247290771583,0.09072233742497059,-0.0347265116865728,25.47
1.0,-0.38854151920551894,-0.16943088336198575,0.9053341493219434,-0.0014372202795414127,0.08720033902663023,-0.03701932184118575,25.38
1.0,-0.38850248180716407,-0.16944694205020966,0.9051798867951313,-0.0010898984167661589,0.08397376983724841,-0.03953722243635074,25.38
1.0,-0.38845486140230917,-0.16947009019102674,0.9050300406743618,-0.0004090397952532755,0.08108179730143875,-0.04225089872305256,25.38
1.0,-0.3883974337246471,-0.16949831039633448,0.9048866153898321,0.0006046423935576271,0.07856170470473757,-0.04509998372740388,25.42
1.0,-0.38832989241937815,-0.16952950771843273,0.9047503014840415,0.0019408730363595153,0.07643091678933528,-0.04798731869919994,25.42
1.0,-0.3882536560925267,-0.16956257118984222,0.9046198718345494,0.0035736064262279032,0.0746784271264271,-0.050788292487777914,25.42
1.0,-0.3881712244791753,-0.169597853640562,0.9044931557315228,0.0054639511439087025,0.0732715894892293,-0.053378671122628105,25.38
1.0,-0.38808525308748193,-0.16963680358952632,0.9043691872790885,0.0075676493418416904,0.07216807017881212,-0.05565433710791049,25.38
1.0,-0.38799850550055,-0.16968083605576134,0.904249176344119,0.009846107480360843,0.07131909582738312,-0.057536407948845326,25.33
1.0,-0.3879140833818197,-0.16973000049372847,0.9041364732719056,0.01228237858639398,0.07065940113832549,-0.05896402481599124,25.42
1.0,-0.3878353028528771,-0.16978272489844576,0.9040363156143832,0.014885397589212684,0.07010300395084831,-0.059877655577842824,25.42
1.0,-0.387765524156354,-0.1698366390549725,0.903954552382557,0.01767163889536755,0.06955667700517405,-0.060221059666299946,25.42
1.0,-0.387708165312061,-0.16988928926352984,0.9038961621802517,0.02064032194289072,0.06894366512450811,-0.059971000956946796,25.47
1.0,-0.3876665449015235,-0.16993848486607113,0.9038650699409841,0.023762062242019627,0.06823590253354925,-0.059158857934727756,25.38
1.0,-0.38764354462820844,-0.16998249158077317,0.9038645453738264,0.026975027441269724,0.0674808220061524,-0.057857830841282036,25.38
1.0,-0.3876412220402157,-0.17001977243900654,0.9038968206675432,0.03018111830526896,0.06679694652880945,-0.05615114632892444,25.47
1.0,-0.3876601919722091,-0.1700485363616207,0.903962542692302,0.03326182344325907,0.0663463101035635,-0.05410701748077698,25.38
1.0,-0.38769939389088603,-0.170066954078154,0.9040612613510529,0.03610511380031289,0.0663026648885562,-0.0517760084103442,25.42
1.0,-0.3877568149606076,-0.17007394859072045,0.9041922158738496,0.03861669107389212,0.06681258217237748,-0.049212360152909404,25.33
1.0,-0.3878302895938456,-0.17006924213728458,0.9043541721165933,0.040729340732250534,0.06795999289947688,-0.04648019191174985,25.33
1.0,-0.3879176288817122,-0.17005229092476012,0.9045443175978651,0.04241525078782917,0.0697560288504378,-0.04362364667291558,25.47
1.0,-0.38801671043562735,-0.1700215378526387,0.9047577384443796,0.04368871059840241,0.072144952928044,-0.040649067267865525,25.47
1.0,-0.3881259942876481,-0.16997475698877892,0.9049884942369965,0.04459691293851935,0.07501472054469323,-0.037543783585480356,25.28
1.0,-0.38824450605384453,-0.16991012108621523,0.9052304350074453,0.04519913200357913,0.07821614347068079,-0.03429879148154056,25.42
1.0,-0.38837096832240436,-0.16982760065511546,0.9054770286017242,0.04555349314922271,0.08157185284870365,-0.030916537002863252,25.42
1.0,-0.388503357206452,-0.16972956274073522,0.9057222043637734,0.04571867731141227,0.08486940172525337,-0.027420390697566924,25.42
1.0,-0.38863926454179143,-0.16961972020719102,0.9059615788363004,0.0457458286939432,0.0878713879617509,-0.0238675520420949,25.42
1.0,-0.38877608849744766,-0.16950178310335734,0.9061920442306446,0.045664764621933904,0.09034486361200261,-0.02034306607092297,25.38
1.0,-0.38891058985799287,-0.1693790965515755,0.9064109227581737,0.04548414772493491,0.09208000178425575,-0.016942877137129917,25.38
1.0,-0.3890386809241725,-0.16925458370613877,0.9066158775305793,0.04519104918689451,0.09289796807694413,-0.013767751888186873,25.38
1.0,-0.3891561994490268,-0.16913059144402856,0.9068047268630116,0.0447469729616571,0.09266790181268499,-0.010916846192828202,25.38
1.0,-0.38925976941931856,-0.16900905099547642,0.9069752293589372,0.04408916449127557,0.09133234050071079,-0.008470924536681513,25.42
1.0,-0.3893469192499216,-0.16889161804688402,0.9071251854953721,0.04313198161758223,0.08893199264802291,-0.006483504859200826,25.42
1.0,-0.38941610597971593,-0.168779371982431,0.9072522093539099,0.04179419320235016,0.08562959065300817,-0.004991850154934065,25.33
1.0,-0.3894667835036462,-0.16867252851544268,0.9073533906540787,0.040045277444890115,0.08170741982395048,-0.004035266356955206,25.38
1.0,-0.38949889318421593,-0.16857062121933425,0.907425887778279,0.037904173832063764,0.07751571954412424,-0.0036641426751763333,25.42
1.0,-0.3895122067429821,-0.1684730029540772,0.9074680165109924,0.035406912676930746,0.07341452963932381,-0.003930708699338463,25.38
1.0,-0.3895062178567813,-0.16837923872258936,0.907479619921875,0.03260492463617045,0.06974094442092078,-0.004865129609657749,25.38
1.0,-0.3894805976837343,-0.1682890945116934,0.9074622918556172,0.029571016752788556,0.06677126550521399,-0.006463383318291153,25.38
1.0,-0.3894360544750696,-0.1682023490618466,0.9074198633521782,0.02638575507342074,0.0646804215009324,-0.00869139791473008,25.38
1.0,-0.3893749697069233,-0.168118866560665,0.9073574794577984,0.02313262564856526,0.0635425008009091,-0.011475628896504437,25.42
1.0,-0.3893010525456323,-0.1680390886908991,0.9072792852574051,0.019903558005201733,0.06336259600784087,-0.014697525954853248,25.42
1.0,-0.38921826980930857,-0.16796450871015117,0.9071873898474084,0.01679224804119104,0.06409663559449262,-0.018218533390082593,25.42
1.0,-0.38912981871599006,-0.16789704900743857,0.9070829418776132,0.013886203640908739,0.0656642754694791,-0.0219015196471734,25.38
1.0,-0.3890375499809624,-0.16783777067193334,0.906967596402373,0.011269911166155123,0.06797932873963113,-0.025621588792670402,25.28
1.0,-0.38894206450995394,-0.16778693097032749,0.9068441191052377,0.009022512112631123,0.07097252685199733,-0.029288909237632315,25.38
1.0,-0.38884347340378256,-0.1677450360536836,0.9067159803265066,0.007199115903522305,0.0745773349467294,-0.03285919779990435,25.28
1.0,-0.38874247585818433,-0.1677130490942333,0.9065866492980176,0.005819568447718993,0.07870603640156826,-0.036320219974245345,25.47
1.0,-0.3886410466128911,-0.16769177683913403,0.9064594354033123,0.004879851401426849,0.08324902922389832,-0.03968376858939521,25.52
1.0,-0.3885422369217169,-0.16768114871219603,0.9063373206933023,0.0043493173577186664,0.08810099118118646,-0.04298565656444666,25.42
1.0,-0.38844970348561997,-0.16767985210197633,0.9062221045191993,0.00413842870232924,0.09319578584739255,-0.04627221805264732,25.42
1.0,-0.38836742428441146,-0.16768565731382973,0.9061134763175489,0.0040960411259023085,0.09851123813578244,-0.049573628665884786,25.42
1.0,-0.38829914808024923,-0.16769608778010436,0.9060090862082874,0.004063254772238875,0.1040337367823262,-0.05288177749531927,25.33
1.0,-0.3882477335338605,-0.16770879068459768,0.9059059684195827,0.0039261181489854725,0.10972204986872448,-0.056144343824169655,25.47
1.0,-0.38821492119064444,-0.1677215172993029,0.9058020814136537,0.003634283501827036,0.1154913291760665,-0.05928038905740283,25.38
1.0,-0.38820156766325137,-0.16773231900190466,0.9056970183204361,0.0032023201314730337,0.12121144491981399,-0.06221184859226483,25.47
1.0,-0.38820826139683695,-0.1677399560823789,0.9055922153436409,0.0026948769903419384,0.12672727130493225,-0.06488135853068118,25.47
1.0,-0.38823566510397634,-0.16774377551571204,0.9054901046551682,0.002194762967237771,0.13189271849326742,-0.06724208469346366,25.52
1.0,-0.38828403605434225,-0.1677433394943563,0.9053925220155036,0.0017706542121313574,0.13659306948017202,-0.06924819137069109,25.42
1.0,-0.3883529218808175,-0.16773852152612492,0.9053005121223665,0.0014674749007334994,0.1407476702582974,-0.07085495343376144,25.42
1.0,-0.38844151689665923,-0.16772980477700072,0.9052153001369784,0.0013216602248500207,0.14430348627001616,-0.0720188299390577,25.42
1.0,-0.3885486050325693,-0.1677182401473904,0.9051384382827206,0.0013733724674149703,0.14723356388578532,-0.07271325866721283,25.38
1.0,-0.38867192351944585,-0.16770523753342256,0.905071590950361,0.0016667923290724172,0.14953674630723116,-0.07295301297765258,25.47
1.0,-0.3888078643095977,-0.16769266076290842,0.9050170228441774,0.0022476779137730993,0.15123136200912585,-0.07279370731416109,25.38
1.0,-0.3889519268529474,-0.16768281578919866,0.9049776005148327,0.003154704742314244,0.15234659671502895,-0.07230211165736382,25.38
1.0,-0.3890996564445138,-0.1676780897194801,0.9049558091405207,0.004408234998475194,0.15291541403801753,-0.07152775934264176,25.42
1.0,-0.3892470598566754,-0.1676806926670212,0.9049531734989834,0.006007306407721062,0.15297225549158575,-0.07049692110450524,25.33
1.0,-0.3893901500600821,-0.16769226365203482,0.9049703268488674,0.00793076398780319,0.15255593770806652,-0.06921648328756774,25.33
1.0,-0.3895248831336857,-0.16771359864846616,0.9050072751136571,0.010138848408366898,0.1517155152183448,-0.0676835729429749,25.42
1.0,-0.3896474532851062,-0.16774513935869914,0.9050640375838117,0.012586833634506574,0.1505178625853914,-0.06590321459111936,25.42
1.0,-0.389753974866475,-0.16778737276463604,0.9051408853722166,0.01523772047354031,0.14904881592510294,-0.06389722351693228,25.38
1.0,-0.389840147270691,-0.16784065685472058,0.9052372812305584,0.018054360365845443,0.14739260978005206,-0.06169226115262047,25.47
1.0,-0.3899012864655903,-0.16790511277269174,0.905350529551662,0.020995642244960214,0.1456032379134057,-0.05929122275452085,25.47
1.0,-0.3899328698295916,-0.16798037913146058,0.9054762315438973,0.024022349509503528,0.14369232198216272,-0.0566589869078277,25.47
1.0,-0.389931814006061,-0.16806515756814117,0.9056110519090175,0.02709188311598477,0.14162307635757382,-0.05375207376213915,25.33
1.0,-0.38989736049066853,-0.16815744292497814,0.9057548868602175,0.03015362424345085,0.139316972139574,-0.05055912085295551,25.42
1.0,-0.38983092419047183,-0.16825526754166692,0.9059101506820861,0.03314964101193993,0.13669569921241215,-0.04710368633130786,25.42
1.0,-0.38973542964829494,-0.16835686166589153,0.9060797264921591,0.03601397065078351,0.13372571868702818,-0.04342494715106594,25.33
1.0,-0.38961476457669586,-0.16846040803541437,0.9062646932834156,0.03868540734187127,0.13041623549711184,-0.039578954775960073,25.47
1.0,-0.38947369567923806,-0.1685641166201535,0.9064623327965704,0.041127930094907415,0.1267844126324772,-0.03564755636915123,25.38
1.0,-0.38931759909704694,-0.16866609561740073,0.906666381452162,0.043324405163635525,0.12284517204903012,-0.03171199125806449,25.47
1.0,-0.38915180346442296,-0.16876392969502624,0.9068686479069313,0.04525045503878006,0.1186377621791079,-0.02782501610604415,25.38
1.0,-0.3889813876646274,-0.16885485187561983,0.9070596196446329,0.0468717602649695,0.11424257360508297,-0.024037954808959434,25.42
1.0,-0.38881152903504673,-0.1689360731659943,0.9072295646933143,0.048167898417336076,0.10976690434324228,-0.020438306897617865,25.42
1.0,-0.3886479464901078,-0.1690048308385118,0.9073710253560477,0.04915209920437441,0.10531318454956544,-0.017140316683773645,25.52
1.0,-0.3884969283516152,-0.16905894987112297,0.907479961470919,0.04986146188570282,0.10094477708534015,-0.01425734070437518,25.42
1.0,-0.38836435090727733,-0.16909725466402964,0.9075547553711056,0.05032396596502191,0.09668533583588783,-0.01190109365524695,25.42
1.0,-0.3882542367676157,-0.1691190390988924,0.9075951193636396,0.05054472762181306,0.0925507682438586,-0.010187513131572295,25.47
1.0,-0.3881682506037459,-0.16912410265502562,0.9076020823323171,0.05052015450350294,0.08856072814791682,-0.009211724785470957,25.47
1.0,-0.3881063853157972,-0.1691135827334974,0.9075784683531712,0.050247570077263645,0.08473384344691356,-0.009018331677974344,25.47
1.0,-0.3880673763179582,-0.16908984647700012,0.90752870929795,0.049721902916370506,0.08110275368808477,-0.009588552210327818,25.28
1.0,-0.3880481335297195,-0.169055465467594,0.9074580149944672,0.04893214406496075,0.07772591735140894,-0.010827229591317902,25.52
1.0,-0.38804390945730055,-0.16901270621798628,0.9073716584276431,0.047863894272582676,0.07467028689463441,-0.012567935957488199,25.33
1.0,-0.3880498443838238,-0.16896412915618492,0.9072747694943187,0.04650939397664126,0.0719871412153555,-0.01461017336730635,25.47
1.0,-0.38806225975807385,-0.1689133843241544,0.90717266092875,0.04487656855084143,0.06970865645983587,-0.016762449908242487,25.38
1.0,-0.3880789763112429,-0.16886485520267863,0.9070705513455959,0.0429897911445383,0.06787384406853168,-0.018869784931981437,25.38
1.0,-0.3880990458055831,-0.16882230238413815,0.906972286924402,0.04089474127237162,0.06655479340464189,-0.02082269602795709,25.47
1.0,-0.3881223997613461,-0.1687878351951106,0.9068798028190838,0.038668097365929896,0.0658446319198139,-0.022558031935139007,25.38
1.0,-0.38814959641931385,-0.16876210985591877,0.9067937950945948,0.03640591634625953,0.06582520622172065,-0.024054492309999707,25.52
1.0,-0.3881812093883611,-0.16874504915943203,0.9067142151974366,0.03418818440928837,0.06654444995279586,-0.025318400136161257,25.42
1.0,-0.38821706380506016,-0.16873566952415203,0.9066402238763558,0.03205905065071055,0.06800069290112126,-0.02637683305954451,25.42
1.0,-0.38825615148638987,-0.16873179262667737,0.9065706352297164,0.03004022379031025,0.07013607949175714,-0.027286158722764044,25.33
1.0,-0.38829695539046294,-0.16873090704463428,0.9065045686338041,0.02814657277706226,0.07284717561638514,-0.02812207145987355,25.42
1.0,-0.388337487600078,-0.1687307335080068,0.9064408671500762,0.02639029751263047,0.07600740480799947,-0.028937791960058336,25.38
1.0,-0.3883753531139523,-0.168728785942253,0.9063773868889613,0.024787280700154155,0.07948657463032407,-0.029736931664740635,25.38
1.0,-0.38840815129669054,-0.16872265564218875,0.9063117505944303,0.023362528685743567,0.08315561351013195,-0.03048970576458176,25.47
1.0,-0.38843390857065535,-0.16871099345228224,0.9062425074474365,0.022154094177592547,0.08688888081216692,-0.031163754515525128,25.42
1.0,-0.38845166152277366,-0.16869350289031293,0.9061692753157851,0.021215378320123508,0.09057882334924881,-0.03175076027129743,25.42
1.0,-0.3884620563192233,-0.16866986568711742,0.9060920231820208,0.02060413902598518,0.09414227780235995,-0.03228955649409311,25.42
1.0,-0.3884669766509316,-0.16863883808367033,0.9060107883694396,0.02037049076442683,0.09750684514574237,-0.032872145085652886,25.42
1.0,-0.38846822847393087,-0.1685985107469374,0.9059260430682055,0.020550534694859304,0.10059729042746408,-0.03361964525521004,25.33
1.0,-0.3884665463797987,-0.16854754298030913,0.9058387470006095,0.021151111314818498,0.10333244142442369,-0.03463171253983356,25.47
1.0,-0.3884617323264503,-0.16848602848213662,0.9057499631153111,0.022137275181063128,0.10563482125921687,-0.03594323440443068,25.38
1.0,-0.3884537036535683,-0.1684154696991826,0.9056607410699306,0.023439662632161767,0.10744429231236163,-0.03752206001573092,25.38
1.0,-0.38844338097606484,-0.16833853243445918,0.9055728565601812,0.024973919234051033,0.10872263700120513,-0.039305353399492635,25.38
1.0,-0.3884322446781812,-0.16825859166212095,0.9054897660529182,0.02665652715555924,0.10945382631228612,-0.041248493398481856,25.47
1.0,-0.38842085697515394,-0.16817910781893367,0.9054166893780888,0.02841224466138165,0.10964363146057869,-0.04334394066997773,25.33
1.0,-0.3884081128418156,-0.16810332542029546,0.9053595127261509,0.03017475861605761,0.10932509095438667,-0.04559769620443101,25.52
1.0,-0.3883920583930416,-0.1680336787839179,0.9053224769698206,0.031881804402129524,0.10857848334634532,-0.04800219483936555,25.42
1.0,-0.3883713978516817,-0.16797077271802688,0.9053064647162932,0.0334781422060387,0.10754728782554998,-0.0505258755684279,25.47
1.0,-0.38834620301979367,-0.16791344289057641,0.9053100331198292,0.0349275755066654,0.10642150566358913,-0.05311182775753224,25.38
1.0,-0.388317076235757,-0.16786008398918778,0.9053310520207157,0.03621002218512118,0.10539185974557888,-0.05569063823149341,25.38
1.0,-0.3882838946775221,-0.1678094398389542,0.9053668358733313,0.03729944990583161,0.10459686122410618,-0.05820147415637008,25.47
1.0,-0.38824570670358494,-0.16776031220717053,0.9054147460949976,0.03814277919158388,0.10407631689040019,-0.06060315043388013,25.47
1.0,-0.38820177938992295,-0.1677114945858542,0.9054732196555202,0.03866011362379045,0.10375672418883847,-0.06287603569073164,25.47
1.0,-0.38815275265885346,-0.16766219568215107,0.9055410000033884,0.03877484449995931,0.10347851618198813,-0.06501378660065515,25.47
1.0,-0.3881011450439001,-0.16761188778579403,0.905615849723639,0.03844278028604841,0.10303381835779557,-0.067007344136012,25.52
1.0,-0.388050724913865,-0.16755962172449795,0.9056947813905608,0.03763653607729684,0.1021927479907408,-0.0688434653136591,25.42
1.0,-0.38800479263009624,-0.16750393638690395,0.9057752720873145,0.03630831092375977,0.10072546402510243,-0.0705123113804142,25.52
1.0,-0.3879650135232213,-0.16744354675998344,0.9058559124489874,0.03438839249310483,0.09843462768382308,-0.07200001778265223,25.52
1.0,-0.38793194697093514,-0.16737806796882668,0.9059355018836103,0.0318133753774675,0.09518367820636986,-0.07328208203401461,25.42
1.0,-0.3879057892767478,-0.16730847288446493,0.9060115984517835,0.02854337445429503,0.09089910599896112,-0.0743361805492108,25.38
1.0,-0.3878860153703443,-0.16723719499510478,0.9060804367946743,0.02455349035998519,0.08557562965643012,-0.07514795119262224,25.38
1.0,-0.38787067803976377,-0.16716752681716507,0.9061384036437532,0.01980984632166829,0.0793015097205384,-0.07569212720559688,25.38
1.0,-0.3878565673066758,-0.16710296332315228,0.9061835508157124,0.014261363151771012,0.07226045586743,-0.07592464513353621,25.47
1.0,-0.3878406657177986,-0.16704756260431797,0.9062158024647783,0.00786340943120176,0.06466459282991507,-0.07581514135173599,25.38
1.0,-0.3878218267901724,-0.167006440126575,0.9062359025026849,0.000622928268402811,0.056601868079996294,-0.0753873308329131,25.38
1.0,-0.3878009301088978,-0.1669852103964941,0.9062446942396952,-0.00733838071225618,0.04782660372804412,-0.07472053854163316,25.38
1.0,-0.3877794052296954,-0.1669889586255366,0.9062439624426718,-0.015719454468181324,0.03758877982463839,-0.07392060943249759,25.38
1.0,-0.3877576268112884,-0.1670212589986603,0.9062374627921447,-0.024003670214151344,0.024598353075648748,-0.07309337009589248,25.47
1.0,-0.3877343968047402,-0.1670833738973594,0.9062306872814075,-0.03144887680380061,0.007121572752531702,-0.0723190691970033,25.38
1.0,-0.3877073845499985,-0.16717429079712043,0.906229828624771,-0.037097592713499175,-0.016850950772634665,-0.07163620253914267,25.47
1.0,-0.38767360374555565,-0.16729134565340084,0.9062403485995588,-0.039835693387120674,-0.04935988665741676,-0.07106129499729101,25.38
1.0,-0.3876294852624809,-0.16743045379521143,0.9062657077375865,-0.03852628244121899,-0.09214487140915659,-0.07061136879689084,25.47
1.0,-0.3875710267981249,-0.16758626937614882,0.906307495804593,-0.03220024244920795,-0.14631963956927274,-0.07029214302601036,25.47
1.0,-0.38749440097132015,-0.1677529860072299,0.9063664200649288,-0.02021750444000506,-0.2121838784107283,-0.07008725734588775,25.47
1.0,-0.38739659960368766,-0.16792539494204212,0.9064424622790423,-0.0023015077161377883,-0.2892435957780182,-0.0699698018343241,25.47
1.0,-0.387275818815716,-0.16809934154852502,0.9065345715476059,0.021545637145876675,-0.3764041781047772,-0.06990747451864027,25.47
1.0,-0.38713194383589966,-0.168271159777959,0.9066404897956183,0.051137686920961385,-0.47218311306896643,-0.06985584463243887,25.38
1.0,-0.3869670324239964,-0.16843677650016559,0.9067566184398742,0.08611644427340029,-0.5748136146947039,-0.06975263066715584,25.47
1.0,-0.38678473364175886,-0.16859132388921563,0.906878665440653,0.12589670520966573,-0.6822462893021201,-0.06951462417080005,25.47
1.0,-0.3865887344679085,-0.16872911484203137,0.9070027447576963,0.1696383264925644,-0.7921325836244163,-0.06904988797103716,25.38
1.0,-0.38638205634893724,-0.1688438470400154,0.9071260090599987,0.21628723606625058,-0.9018472373012796,-0.06828083368745977,25.38
1.0,-0.38616765105847284,-0.16892936513318943,0.9072467345210119,0.26462829850807096,-1.0085653148023002,-0.06714456227538211,25.57
1.0,-0.3859488345168286,-0.16898064622298806,0.9073638687706199,0.3133141835607737,-1.1093848340175332,-0.06557707062246768,25.47
1.0,-0.38572880256666026,-0.16899397071435746,0.9074766899267557,0.36090390716369186,-1.2014501008630096,-0.0635154900001712,25.52
1.0,-0.3855095841326233,-0.16896654890681645,0.907584978682057,0.4059160318038064,-1.2820337482786972,-0.06091430313872538,25.42
1.0,-0.38529115507084605,-0.1688969644003782,0.907688882543583,0.4468765464972737,-1.3485809428158024,-0.05775797814624839,25.42
1.0,-0.38507171600501,-0.16878612024528966,0.9077885971075893,0.48238105652536656,-1.3987520366688182,-0.054067556638802375,25.42
1.0,-0.38484905128173064,-0.16863736303296464,0.90788472418799,0.5111711635140667,-1.430496917228415,-0.0499025096437025,25.33
1.0,-0.3846217580993026,-0.16845571284110697,0.9079782664162325,0.5321961809688782,-1.4421645777496812,-0.04536043678867191,25.42
1.0,-0.38438967103889443,-0.1682470915784105,0.9080698131660476,0.5446616915453594,-1.4326159022666085,-0.04056475498936765,25.42
1.0,-0.3841532965185181,-0.16801831495384592,0.9081594054026466,0.5480591390412948,-1.4012844298861928,-0.035633753136164036,25.42
1.0,-0.3839127059655683,-0.16777724530744778,0.9082467493033308,0.5421527172063291,-1.348164212939709,-0.030662176582316184,25.42
1.0,-0.38366739617011014,-0.16753222064125872,0.9083309407105109,0.5269420350474182,-1.273767697486875,-0.0257362984228623,25.42
1.0,-0.3834177275268483,-0.16729160499029158,0.9084103307262862,0.5026484204308388,-1.179109621274075,-0.020952828518938562,25.42
1.0,-0.38316621744552104,-0.16706358898336593,0.9084826375311489,0.4697264389955256,-1.0657219532939841,-0.016425177580940784,25.38
1.0,-0.38291752974159043,-0.16685522078890394,0.9085451745018128,0.42886429773707413,-0.9356550285695645,-0.012297674620911433,25.38
1.0,-0.3826780386710714,-0.1666717349421247,0.9085951222331379,0.3809663405839488,-0.791441973723659,-0.008763105103493886,25.38
1.0,-0.3824550312340381,-0.16651730832137132,0.9086296085169185,0.32712290921542,-0.6360413208644855,-0.006056274982202089,25.38
1.0,-0.3822553675184073,-0.166395682145069,0.9086461152466874,0.2685648744267329,-0.47276385446480523,-0.004425691174309799,25.47
1.0,-0.38208503555382106,-0.16630949699075023,0.9086433486963645,0.2066149705138318,-0.30515764038048443,-0.004103073070626211,25.47
1.0,-0.38194965991573976,-0.16625931311584424,0.9086215431393551,0.14264094096562943,-0.1368403218210711,-0.005276283779661908,25.47
1.0,-0.3818542139636387,-0.16624305848021564,0.9085823341251078,0.07800664875716873,0.028661854082678562,-0.008066535678583914,25.38
1.0,-0.38180225587786143,-0.16625615334347504,0.908529242874788,0.014038193512798775,0.18802107499268877,-0.012520624201622596,25.47
1.0,-0.38179569341891084,-0.16629269206918565,0.9084680755666733,-0.047993418981265454,0.3381826574913882,-0.018614425524149523,25.47
1.0,-0.38183450696862636,-0.16634701831268595,0.9084060602684434,-0.10690585135301159,0.47644193261296697,-0.026252753794071472,25.38
1.0,-0.38191672962893436,-0.1664145138445527,0.9083499442421001,-0.16165894345482748,0.6005507883152327,-0.03527242347295393,25.47
1.0,-0.3820390423089579,-0.1664917555756276,0.9083044335544479,-0.21139614861668926,0.7088306998041006,-0.04545381117202735,25.52
1.0,-0.3821970408077281,-0.16657672399003856,0.9082724160439053,-0.25545042295098547,0.8002168746478284,-0.05653498975654458,25.33
1.0,-0.3823852787348143,-0.16666854932729594,0.9082565860926359,-0.2933195349381004,0.8741911800752049,-0.06822544101661232,25.42
1.0,-0.38259768085854096,-0.16676669231430474,0.9082602841620095,-0.32463907849464546,0.9306357244980455,-0.08021729679241624,25.42
1.0,-0.38282793907843454,-0.16687043394187803,0.9082861299603492,-0.3491622168138597,0.9697158774574698,-0.0921961694365968,25.47
1.0,-0.3830698532362739,-0.16697871182950508,0.9083338426412342,-0.36675132707051183,0.991882311119375,-0.10385073729867611,25.42
1.0,-0.3833178747742316,-0.16709039851747845,0.9084000582990037,-0.37740328831634445,0.99795390245515,-0.11489055223905659,25.33
1.0,-0.3835673277799629,-0.16720513031074338,0.908480454986367,-0.38128746920527357,0.9891614011621264,-0.12507861620648136,25.47
1.0,-0.38381406935663276,-0.1673237246028846,0.9085712962504006,-0.3787507986386297,0.9670833038136242,-0.13424868050738487,25.47
1.0,-0.3840543549918665,-0.16744744868489664,0.9086684879486477,-0.37028624740739524,0.933529049113669,-0.1422938923187104,25.38
1.0,-0.3842851219176221,-0.1675766848470891,0.9087655939623488,-0.3564939293892511,0.8904465411698314,-0.14915346468171897,25.47
1.0,-0.3845037571076214,-0.16771028013865585,0.9088536534616521,-0.3380618327309659,0.8398688354029521,-0.15480429654430647,25.38
1.0,-0.38470703309588417,-0.16784577857080465,0.908923471811681,-0.3157724275372813,0.7838845198910384,-0.15924969836181987,25.38
1.0,-0.3848904980635172,-0.16797947201922558,0.9089682193212796,-0.2905100878707748,0.7245882463646791,-0.16251125448272574,25.47
1.0,-0.3850495760673434,-0.16810614093798384,0.908984959584406,-0.2632310879482341,0.663968950332433,-0.16462767158413374,25.42
1.0,-0.38518174050075227,-0.16821971127669583,0.9089745925114484,-0.2348963415373544,0.6037535980082152,-0.16566652718440475,25.33
1.0,-0.3852878703654714,-0.16831490533244367,0.9089402848977068,-0.2063916400427481,0.5452542417232799,-0.16573901788293294,25.42
1.0,-0.3853718208612066,-0.16838793828793303,0.9088867884616656,-0.1784489819011087,0.48924576393418745,-0.16498863427541574,25.42
1.0,-0.3854386679092693,-0.16843608467087245,0.9088208792263046,-0.1515936480887159,0.4359074295803877,-0.16357106915024133,25.42
1.0,-0.3854925186947049,-0.16845827097350105,0.9087501970021243,-0.12612577464134275,0.3848654131294462,-0.1616540077719062,25.52
1.0,-0.38553487627379496,-0.16845623676030574,0.9086808830544898,-0.10211186138926448,0.3353493178158198,-0.15941085925579804,25.42
1.0,-0.3855640388501583,-0.1684339381064446,0.9086166575354933,-0.07938067806674624,0.2864027951236699,-0.15699071574262383,25.42
1.0,-0.3855751660295249,-0.16839546198356495,0.9085601258549445,-0.05755171487102007,0.23703886654866568,-0.15448964079967434,25.42
1.0,-0.3855563482558048,-0.16834130792159815,0.9085186657007427,-0.0362478172464659,0.1866117724222666,-0.151841607343872,25.42
1.0,-0.3854686757432015,-0.16825953978156719,0.908519051887447,-0.016196064430870336,0.13676910424892244,-0.1474023483121628,25.42
1.0,-0.38522377533663005,-0.16811961395036118,0.908612589115635,-0.0016535607426923465,0.095373021890367,-0.13355282215823205,25.42
1.0,-0.3847114367349322,-0.1678872441114935,0.9088433593447993,-0.001961236879205546,0.0786385851130635,-0.09215981882073382,25.47
1.0,-0.3838763438899686,-0.1675461086575798,0.9092124001399996,-0.02962735241372135,0.10886076150602454,0.0038244843426377927,25.38
1.0,-0.38276284749125233,-0.1670940208967833,0.9096837262280666,-0.09674624377597858,0.2105172269434431,0.1824346660471697,25.47
1.0,-0.38149437243865114,-0.16653469331475396,0.9102013674897713,-0.212698700117056,0.40627636132179396,0.4648561346125379,25.47
1.0,-0.38023487316724836,-0.16589392156277294,0.9106900600968784,-0.3826714745974005,0.7125320894275127,0.8615504355540007,25.42
1.0,-0.37916235885841976,-0.1652251880642191,0.9110659873072559,-0.6064689515791692,1.1360831161069525,1.3711701414109938,25.42
1.0,-0.37844603214507766,-0.16458872974456024,0.9112592224607793,-0.8787192429604618,1.6732366802058523,1.9807332201432115,25.52
1.0,-0.37823145738267805,-0.16404681746124725,0.911219801052617,-1.1899924932837203,2.3116553704240994,2.6669508397102164,25.52
1.0,-0.3786383818253975,-0.16368921724479923,0.9109074942425232,-1.5273685614408596,3.0336833578163986,3.3987429608610116,25.47
1.0,-0.37975535407997824,-0.16366518660015267,0.910292304986511,-1.8749695572379317,3.8181535601043675,4.1408072048563165,25.47
1.0,-0.3816289010965239,-0.16420691285534417,0.9093710139909384,-2.2155554990563635,4.641079326647353,4.856916833529144,25.38
1.0,-0.3842574419956104,-0.16563047814813978,0.9081788912328086,-2.5327031859257474,5.47923217853853,5.510702524275085,25.47
1.0,-0.38759568046520504,-0.16829877183876185,0.906784539371557,-2.8126666042119006,6.316864232097134,6.0637263724658155,25.52
1.0,-0.39157637974179976,-0.17255283085885675,0.9052686979366816,-3.045403871939439,7.150659262890901,6.472451451399603,25.52
1.0,-0.39614180394291204,-0.17863429738894518,0.903700359493673,-3.224319044606391,7.989646992264388,6.6856143900509775,25.42
1.0,-0.40126114544718605,-0.18662083620111566,0.9021308871186993,-3.3450563541548597,8.851521279349486,6.6443719160602175,25.47
1.0,-0.40692432272344325,-0.19639626439182253,0.9006008050255205,-3.404750605982202,9.75801793412774,6.287281281058718,25.47
1.0,-0.4131231798269123,-0.20767178728279204,0.8991344420143108,-3.4031182398085136,10.729626782397546,5.558339584973911,25.38
1.0,-0.41983455852704527,-0.2200550788261815,0.8977248784375251,-3.345239709015983,11.777734432060198,4.413556919777398,25.42
1.0,-0.42701254439722747,-0.23314058914470964,0.8963324436207581,-3.244206456786664,12.894498359135497,2.8231767601058277,25.42
1.0,-0.4345848607392114,-0.24659650410832656,0.894903461165582,-3.121651478789626,14.04581765077664,0.7695874857611024,25.38
1.0,-0.4424465092464668,-0.26020819776346876,0.8934024274268143,-3.0038335691368263,15.173830974324192,-1.7576837647360017,25.38
1.0,-0.4504575761435979,-0.27383415185383647,0.8918320587375204,-2.912810489539519,16.208960876635764,-4.768372605866545,25.42
1.0,-0.45844475769231613,-0.287325149774804,0.8902064751334815,-2.858584832875264,17.084906208393463,-8.278693022532323,25.33
1.0,-0.4661948230145146,-0.3004816532736348,0.8885021515727242,-2.838005327615284,17.754138978847273,-12.317603293917887,25.47
1.0,-0.47346974882456916,-0.313032579734351,0.8866660937584029,-2.837198484654837,18.204768454114458,-16.925218228660615,25.47
1.0,-0.4800843397495772,-0.3246162160412685,0.8846997367566114,-2.831303102738029,18.467717520642022,-22.137017434535483,25.33
1.0,-0.4859860592525183,-0.3347939632789173,0.882719515348293,-2.7822736424027394,18.601556902661127,-27.95873666457708,25.42
1.0,-0.4912386636262143,-0.34311175846071384,0.8809109712649207,-2.64084297853472,18.664997190143886,-34.34620001845395,25.42
1.0,-0.49594209724863736,-0.3491788848198526,0.8794405020904675,-2.354769862380752,18.696626567522046,-41.1999366134991,25.47
1.0,-0.5001888583429994,-0.35271468143471724,0.8784223826567353,-1.878643308653447,18.704138685302606,-48.37237323991877,25.47
1.0,-0.5040628057649121,-0.35354414101055537,0.8779354497767009,-1.1798469750506413,18.654897143422552,-55.68012246349115,25.42
1.0,-0.5076270902624695,-0.35156524809456574,0.878039522229194,-0.23891729026892933,18.468416638923898,-62.916760573423986,25.42
1.0,-0.510888125832203,-0.34672303372797264,0.8787775558550599,0.9549049449443592,18.01871494361882,-69.86466956857505,25.52
1.0,-0.5137614193233092,-0.339016565481574,0.8801745952771302,2.4107982154441183,17.150773936287013,-76.30578604760477,25.47
1.0,-0.5160631184848092,-0.3285341976372982,0.8822397467480102,4.142892894451107,15.70655014820848,-82.03148268879909,25.38
1.0,-0.5175312311286017,-0.31548097595127605,0.884967788928191,6.172892316189765,13.549215741730174,-86.85154057095968,25.52
1.0,-0.5178642535532276,-0.3001750150054481,0.8883373958225367,8.527416453119697,10.576147902170563,-90.6020224393295,25.42
1.0,-0.5167593450488734,-0.283021568288344,0.8923069610413926,11.231633732557293,6.721209248109218,-93.15196988249431,25.38
1.0,-0.5139384637303306,-0.2644793955575138,0.8968090760701662,14.302215325034087,1.953803649734494,-94.40865403955695,25.38
1.0,-0.5091614350510749,-0.24502985411792313,0.901745205560268,17.7415280327426,-3.7199375535101438,-94.32070010815701,25.52
1.0,-0.5022254196290752,-0.22515086726828518,0.9069830302662233,21.533053336576568,-10.253612080106343,-92.87816938428384,25.42
1.0,-0.4929490156157778,-0.2052864384634269,0.9123559541213919,25.63723032757845,-17.55839677127543,-90.10958523637552,25.42
1.0,-0.48115050111748403,-0.18581896521340904,0.9176633152497143,29.98723847439481,-25.50716111242351,-86.0781626098746,25.47
1.0,-0.46663878413513543,-0.1670710546003257,0.922675824157602,34.485762708736395,-33.94257068185174,-80.88007904313434,25.38
1.0,-0.44922867337036676,-0.14933356077569523,0.9271537490270852,39.00570268101946,-42.678708309390295,-74.64447114696405,25.47
1.0,-0.42878042694883367,-0.13287821710644274,0.9308785971605416,43.39694313949267,-51.494004543727215,-67.53197378542127,25.42
1.0,-0.40525453383108545,-0.1179358252684236,0.9336916828658275,47.49797953052688,-60.12933941308641,-59.729645453682586,25.42
1.0,-0.37876195424601933,-0.10466731582684112,0.9355281064465988,51.14956440188729,-68.30334234960861,-51.442319080934624,25.42
1.0,-0.349586233407935,-0.09315517023218364,0.9364320778029598,54.20817399913048,-75.74010870990426,-42.88124571733517,25.47
1.0,-0.31816904836792426,-0.08341399318978486,0.9365471041137123,56.55755909101972,-82.19605049374346,-34.25157692774223,25.57
1.0,-0.28507174334608404,-0.0754080952162931,0.9360873054913582,58.11669469291067,-87.47797465730623,-25.74112907561906,25.47
1.0,-0.2509289346999565,-0.06906958142515036,0.9353009327826433,58.8431056002637,-91.45244569818043,-17.51283592003686,25.47
1.0,-0.21639993743923003,-0.06431248412244997,0.9344335251539087,58.73175873667927,-94.04943958341495,-9.702056234343855,25.47
1.0,-0.18212096203999437,-0.06103951871586948,0.9336941661034771,57.81070863023593,-95.26132342718985,-2.418159773158259,25.47
1.0,-0.14866685357392273,-0.059143189083844264,0.9332294837988999,56.134995753234676,-95.13563455995933,4.251680324651274,25.38
1.0,-0.11653096400640311,-0.05850474870452369,0.9331119133403611,53.779989285491126,-93.76142512930257,10.2390677717406,25.47
1.0,-0.08612253421358496,-0.058992961443091504,0.9333449127688066,50.83480513625984,-91.25267162523684,15.492974643246836,25.47
1.0,-0.05777256950343633,-0.06046474241683867,0.9338817141511493,47.396106806773396,-87.73371644240105,19.980252959982963,25.52
1.0,-0.03174023073800463,-0.0627706225389382,0.9346511469319321,43.562648640536814,-83.32963807263684,23.686655588316558,25.42
1.0,-0.008218461598441003,-0.06576445428380766,0.9355836627373477,39.431049462375356,-78.16144210059225,26.616728166648272,25.47
1.0,0.01265965418700491,-0.06931066310856726,0.9366321029647788,35.0931815407422,-72.34492226155885,28.79180582206008,25.52
1.0,0.030813713630438243,-0.07328414620040159,0.9377847880808203,30.635122987448597,-65.99269214203306,30.246651547662736,25.42
1.0,0.046209517800326894,-0.07756635913938965,0.9390702440470972,26.137197647722683,-59.21866967554101,31.026018608943723,25.42
1.0,0.05885506049296659,-0.0820440262192188,0.9405522256402564,21.674535443978527,-52.14272669580671,31.18216561618976,25.42
1.0,0.06879859008749419,-0.08661150477035794,0.9423149523072455,17.317590681469984,-44.89274041352663,30.773520729711155,25.52
1.0,0.07612744489981121,-0.09117321528419119,0.9444434361913034,13.132104279264672,-37.60312721779022,29.86395984950513,25.47
1.0,0.08096840223498673,-0.09564413428265167,0.9470063465729812,9.178320454057046,-30.411155811358377,28.52189134484479,25.52
1.0,0.08348972806458628,-0.0999495639391769,0.9500444318938339,5.509677362825195,-23.452777088950658,26.818596752471247,25.38
1.0,0.08390139575466692,-0.10402607946595026,0.9535627677671241,2.1713562821119274,-16.858409144827657,24.82591334158944,25.47
1.0,0.08244933737215496,-0.10782298707270321,0.957526572693147,-0.8010072178520192,-10.748090906439124,22.613849647743248,25.47
1.0,0.0794038325745304,-0.11130239591785546,0.9618616671540985,-3.382334991443056,-5.2258402364995105,20.248712141087182,25.38
1.0,0.07504598839843755,-0.11443784319959434,0.9664591418455896,-5.558854817955459,-0.3738075247169532,17.79197654079925,25.47
1.0,0.06965583388312736,-0.11721173698683465,0.9711837994959509,-7.328529445997124,3.752768675078824,15.299788922311,25.57
1.0,0.0635029663218063,-0.11961240316713588,0.97588528024449,-8.700935839025108,7.128660672660072,12.822856612701454,25.47
1.0,0.05683942077967811,-0.12163192907146753,0.9804105129917325,-9.696355439070707,9.759191076455435,10.406616191022957,25.47
1.0,0.04989509810428269,-0.12326484071362098,0.9846171276371134,-10.344078380480196,11.678323748954643,8.091647772061373,25.47
1.0,0.042875716873284,-0.12450825658627467,0.9883859036877322,-10.680136728328298,12.944431835538337,5.914106367448359,25.57
1.0,0.03596167372425487,-0.12536478393556041,0.9916296290681363,-10.744715592983205,13.633812086585143,3.905749253587666,25.57
1.0,0.029306756841235855,-0.12584746625576212,0.9942968905348719,-10.57959042707169,13.83284784473855,2.0933634934069723,25.57
1.0,0.023037258491945996,-0.1259833094764066,0.9963693879751269,-10.226024210918107,13.63041918830219,0.497824936390321,25.38
1.0,0.017252682220069992,-0.12581258564908201,0.9978534160906409,-9.72333947107343,13.111781157460431,-0.8668188521709186,25.47
1.0,0.012028154390932346,-0.1253854417809458,0.9987694544319069,-9.108082025447617,12.354597873577465,-1.9939639395228508,25.47
1.0,0.007416909099672108,-0.12475863251210739,0.9991440179874539,-8.413646220807575,11.427445055135442,-2.884609873881671,25.47
1.0,0.003452209478072592,-0.12399218512799029,0.9990058934316931,-7.670330427655724,10.390338403146847,-3.5470114282057374,25.47
1.0,0.00014911551198089278,-0.12314495299025358,0.9983860675743974,-6.9057428091496345,9.296202187667092,-3.9959379845380685,25.47
1.0,-0.00249517265642932,-0.12227047857194459,0.9973189851647164,-6.145340967431843,8.19230298368366,-4.251689906456056,25.47
1.0,-0.004503277112617801,-0.12141463414376015,0.9958443486116728,-5.413055563432371,7.120932090281832,-4.338808473537955,25.52
1.0,-0.005919543314537791,-0.12061443295672518,0.9940091831077197,-4.732182763104482,6.118785976088506,-4.284296821221898,25.52
1.0,-0.006808778911133229,-0.11989846884333685,0.9918685206210787,-4.126303192226622,5.2157085803940575,-4.115436230152616,25.52
1.0,-0.007251176664870685,-0.11929064713888782,0.9894854837711702,-3.619350421229691,4.434810988536184,-3.8577094145075925,25.42
1.0,-0.00733522807098549,-0.1188147435853377,0.9869335487021056,-3.2342460467590515,3.7947417463061046,-3.533420790392078,25.52
1.0,-0.007151074875437635,-0.1184953917394192,0.9843003466093441,-2.9904553951992887,3.312261855740696,-3.1612114594646745,25.47
1.0,-0.006785646136469341,-0.11835698536112366,0.9816905664960319,-2.901317457934788,3.0029826451537063,-2.7562074321529955,25.47
1.0,-0.006320054635188611,-0.11842419569193463,0.9792264618816332,-2.97183178058999,2.8799953694606595,-2.3304483964009584,25.47
1.0,-0.005829344026059606,-0.11872284016481996,0.9770438151745104,-3.1971869201064433,2.951339416722901,-1.8935320263206203,25.47
1.0,-0.005383119144062194,-0.11927835850837783,0.9752828590695474,-3.562088878023137,3.2171491068830473,-1.4535948712405653,25.38
1.0,-0.005044486268242964,-0.1201124104439263,0.9740762022416567,-4.040962085207999,3.6671570115241257,-1.0184952839629617,25.47
1.0,-0.0048667024565596274,-0.12123924563068014,0.9735353864401746,-4.599156002053618,4.279424708059846,-0.5967187816589222,25.47
1.0,-0.004889939057924342,-0.12266204898602151,0.9737382351298326,-5.195166993842815,5.020964361633561,-0.19760551622184988,25.42
1.0,-0.0051404952814992555,-0.12436921051142585,0.9747195348103641,-5.783627218426247,5.849966181141206,0.16910862099381047,25.42
1.0,-0.005631980604901401,-0.12633215177307602,0.9764661004471091,-6.318713108101783,6.7186656802046345,0.49420770384782686,25.42
1.0,-0.0063669712996038625,-0.12850676793487684,0.9789159675424843,-6.75771094953244,7.576401092351019,0.7700950640285719,25.42
1.0,-0.007338409288342522,-0.13083760617293638,0.981960395102397,-7.064491379771864,8.373091800103236,0.9917416021074141,25.47
1.0,-0.008530398457405625,-0.13326215481849854,0.9854488525291408,-7.212489881115056,9.063123274059121,1.1571672785849179,25.47
1.0,-0.009919251985508457,-0.1357144491251206,0.9891993795755931,-7.186679109286249,9.609219896942772,1.2673613369639236,25.47
1.0,-0.011475816508099689,-0.13812910966167072,0.9930144519380301,-6.98421648949079,9.985830474650555,1.325794765719818,25.47
1.0,-0.013168549015062366,-0.14044615015488543,0.9966983211335033,-6.61384770621655,10.181362141262738,1.3377671964094675,25.47
1.0,-0.014966012081376694,-0.14261413296855763,1.0000718714459091,-6.094348283526926,10.198531652485176,1.3097489693847115,25.57
1.0,-0.016837593046523297,-0.14459015264811548,1.0029846954464694,-5.452234720996317,10.052736315115798,1.2487818616089872,25.47
1.0,-0.018752817123721247,-0.14633893845271576,1.005324125123111,-4.718962238080786,9.769195130743405,1.1620421969564243,25.57
1.0,-0.020681579335409504,-0.14783317382562153,1.0070197189828982,-3.9279223878186076,9.379793710050167,1.0566808342148775,25.47
1.0,-0.022596569086984635,-0.14905441629487873,1.0080444710988945,-3.1116475098610894,8.920037277109689,0.9398599498068643,25.47
1.0,-0.02447632690026566,-0.14999373133356614,1.008414030254232,-2.299646816439787,8.425885158636605,0.8187635291164009,25.47
1.0,-0.026307007171257904,-0.15065222400200848,1.0081826093019308,-1.5171130652182232,7.930184134064522,0.7004185810788737,25.47
1.0,-0.028082033022253077,-0.15104132079175572,1.0074349678413275,-0.7843857096561341,7.459106437254575,0.5912406560030816,25.47
1.0,-0.02979960571347579,-0.15118248389789118,1.0062754522211634,-0.1168863563456248,7.029630314246611,0.49635111933060083,25.47
1.0,-0.03145940518890962,-0.1511058381230368,1.0048159578767895,0.4746407218872419,6.64883201695789,0.4189294866888632,25.47
1.0,-0.03306029203248302,-0.1508465504916267,1.0031648665391,0.9836264648170601,6.3149730282361105,0.3599277012571675,25.57
1.0,-0.03459982112423838,-0.15043996687972896,1.0014179472582112,1.406997176259919,6.019916483093987,0.3183057012504753,25.47
1.0,-0.036075731642120246,-0.14991821205727598,0.9996523070551804,1.7445061821139134,5.752231427553426,0.2916493630670183,25.57
1.0,-0.037488505368603965,-0.14930888992561747,0.9979254032668343,1.9982262566346554,5.500200073637503,0.27688806054154036,25.47
1.0,-0.03884263790268098,-0.14863532788035697,0.996278485229676,2.1721648828951974,5.254130833614687,0.2709593666756722,25.38
1.0,-0.04014539214534167,-0.14791811769016303,0.9947406125469873,2.2718613157334486,5.007751265476831,0.2713476231412954,25.47
1.0,-0.04140431962864572,-0.14717644305018385,0.9933314793783421,2.303929155355214,4.7585500145303925,0.27635994779837386,25.57
1.0,-0.04262528683366744,-0.1464277165002807,0.9920641123288729,2.275671212007992,4.5070759386156265,0.2850467922372087,25.47
1.0,-0.043811745073666024,-0.14568730627427498,0.9909474538578219,2.194878726525532,4.255764927216772,0.29687546456599356,25.47
1.0,-0.044965102972219194,-0.14496975209686844,0.9899881725474746,2.0697471947267143,4.007993668540155,0.3113732741004004,25.61
1.0,-0.046085111711568164,-0.14428860034985183,0.9891919490622904,1.9087573128344146,3.7672199753256965,0.32785075427158594,25.61
1.0,-0.047168995984477304,-0.14365391698481872,0.9885636646395917,1.7205304939678343,3.5358476856313343,0.34526572209425693,25.52
1.0,-0.04821010545406681,-0.1430712816081632,0.9881058543952919,1.513793839648843,3.3144704750860705,0.36235712109558493,25.42
1.0,-0.04919827614914551,-0.1425438288470378,0.9878167836105092,1.2973794781823378,3.1022396752058308,0.37804604442348216,25.52
1.0,-0.050122104858143446,-0.14207453995353625,0.9876895543396573,1.079998740271642,2.89774594090272,0.39180167440827324,25.42
1.0,-0.05097106289738388,-0.14166642326944046,0.9877121875620688,0.8697545474245225,2.6993282934480898,0.4036402076299577,25.52
1.0,-0.051735961162259494,-0.14132137306256076,0.9878683771471914,0.6736335134331687,2.504813092614438,0.4137644013691426,25.52
1.0,-0.05240863681850168,-0.1410396830753868,0.9881388117943222,0.4972047600667968,2.3114913472792247,0.422148632022537,25.42
1.0,-0.05298255893506354,-0.1408201219916648,0.9885026224395658,0.3445592205943271,2.1166290021532936,0.4283362102010547,25.47
1.0,-0.05345481062765999,-0.14065918404540806,0.9889384981747184,0.21838556862628858,1.917973730540628,0.4314797932647221,25.47
1.0,-0.0538280656513432,-0.14055034903260266,0.9894255163454979,0.12010919529765687,1.7137948496488864,0.4305187790011877,25.47
1.0,-0.05411031348073068,-0.14048520805460074,0.9899436832520194,0.050066896092386015,1.5027617051063622,0.42441266971241937,25.47
1.0,-0.05431260643051121,-0.14045561950862817,0.990474075176639,0.007666433279295109,1.2841906608893117,0.4123633596758622,25.47
1.0,-0.05444718345004315,-0.14045470165270948,0.9909988817898366,-0.008513019163380977,1.0585126256049386,0.39394475000751394,25.57
1.0,-0.054526331534896895,-0.14047650244454007,0.9915013898578052,-0.000674004793844442,0.8274490350188293,0.3691104481237945,25.57
1.0,-0.05456101810383409,-0.14051561038163685,0.9919655850249968,0.028269325497173103,0.593919716563973,0.338139136783167,25.42
1.0,-0.054559442318112904,-0.14056689490890067,0.9923758643815173,0.0748771909805528,0.362015936842983,0.30160459411147095,25.52
1.0,-0.05452613238992152,-0.14062545674613372,0.9927182719428482,0.13546599069031479,0.13695048292958714,0.2603905104036093,25.61
1.0,-0.05446186361427172,-0.14068740004424374,0.9929834279863047,0.20636110331395766,-0.07540047384223567,0.21569565314710132,25.42
1.0,-0.05436459710178433,-0.1407504145946103,0.9931684915478137,0.2840545077203441,-0.26946777342594475,0.16897391707196024,25.52
1.0,-0.05423085129217901,-0.14081305430825514,0.9932758337521783,0.3653305268889286,-0.44109092791302296,0.12180662732770448,25.57
1.0,-0.05405635381888346,-0.14087328369662444,0.9933097501821444,0.44743051073103035,-0.5882559858975615,0.07574192398206986,25.57
1.0,-0.05383599151604671,-0.14092720346725252,0.9932736864431373,0.5282244882295134,-0.7113313074507884,0.032160874079002665,25.38
1.0,-0.05356371166258344,-0.14096910003857407,0.993169034025841,0.6062777779525897,-0.8128705503968989,-0.0077680976058537065,25.57
1.0,-0.05323285764032243,-0.1409929509892143,0.9929954040602004,0.6807032349791085,-0.8969667642294827,-0.043082678860245416,25.57
1.0,-0.0528375033757264,-0.14099405598636455,0.9927509238783846,0.7508129998611655,-0.9682349591876207,-0.07308695942079114,25.57
1.0,-0.05237448256764898,-0.14097024801019445,0.9924319318003842,0.8157307506265015,-1.0306414701423852,-0.09752763783357145,25.47
1.0,-0.051845116634423594,-0.14092190525068107,0.9920335059406642,0.8741086033939953,-1.0864353652269494,-0.1167998769548253,25.57
1.0,-0.051256602599883246,-0.14085019369020144,0.9915515001234558,0.9240229439392641,-1.135504164741767,-0.13202827657725552,25.47
1.0,-0.05062372232038655,-0.14075584568883537,0.9909858088407045,0.9631239218137511,-1.1752741524633137,-0.14494169535702506,25.52
1.0,-0.04997031260479539,-0.14064012284153582,0.9903440738148892,0.9890049029871231,-1.2009696213588001,-0.1575877192634334,25.52
1.0,-0.049328438690075915,-0.14050624450320917,0.9896434182075111,0.9995907100556132,-1.2061485790056172,-0.17196325105822044,25.52
1.0,-0.04873426439033632,-0.14035955102994183,0.9889090687201954,0.9933963651302581,-1.183580094095137,-0.18962528832118422,25.52
1.0,-0.04822253767848742,-0.1402064627328463,0.9881722703698487,0.9696912249812365,-1.126351705099997,-0.21138351839392067,25.52
1.0,-0.047822577114931736,-0.1400533294085652,0.9874689187457116,0.9286075774768893,-1.02890432738122,-0.23717509656898297,25.42
1.0,-0.0475560680774571,-0.139905996363283,0.9868375967602171,0.8711310778469438,-0.8878222130859622,-0.26612931750156404,25.52
1.0,-0.04743488561124995,-0.1397696611433712,0.9863168157932172,0.7989536168884727,-0.7024900345347856,-0.29677669761225317,25.61
1.0,-0.04745927661618735,-0.13964840090117542,0.985942217864956,0.7142720497961976,-0.47562482760940844,-0.3273623138923257,25.52
1.0,-0.04761844901315506,-0.1395444043980494,0.9857429468591681,0.6196377662428473,-0.213357821430388,-0.35616927696263656,25.47
1.0,-0.047893534492031584,-0.1394574301689981,0.9857365128175305,0.5178953044184328,0.07535173465862564,-0.38170804085151827,25.47
1.0,-0.04826159302050989,-0.13938526971803775,0.9859244456116902,0.4121232899530757,0.37976317174644153,-0.40272593040221244,25.57
1.0,-0.04869950380411772,-0.1393249625514457,0.9862914865809349,0.3054917806968358,0.6884467199413357,-0.41816478599493206,25.57
1.0,-0.04918606914444307,-0.1392734313549574,0.9868078126835325,0.20109071398350817,0.9901645366504996,-0.4272066372943009,25.47
1.0,-0.04970161781049317,-0.1392273201878856,0.9874326145496285,0.10179735374295747,1.2745625732203372,-0.4293539934855726,25.47
1.0,-0.05022652338492676,-0.13918240252689187,0.9881178813800708,0.010159351109023735,1.532772384281073,-0.4243794376739967,25.52
1.0,-0.0507399936612108,-0.13913230150597328,0.9888119436538945,-0.07170914764593334,1.7579484642639818,-0.4121266581573412,25.42
1.0,-0.05121967939306911,-0.13906771143899987,0.9894640522224167,-0.1421645442328178,1.9457317846378936,-0.3922957805023587,25.52
1.0,-0.051643285958641566,-0.13897752460629717,0.9900296702512105,-0.20000193938336006,2.0945302691803973,-0.3642959870900821,25.61
1.0,-0.05199218926855473,-0.13885097697056198,0.9904738924245853,-0.24440475895352168,2.2054185493321463,-0.32718660554370654,25.42
1.0,-0.052254570389912706,-0.13868005816634268,0.9907730452283968,-0.27487774325440917,2.2816736629989656,-0.2797465957050753,25.52
1.0,-0.0524273624677606,-0.138462281093205,0.9909158167359209,-0.29116241748412514,2.3282109396691153,-0.2206827716107219,25.52
1.0,-0.05251839147540833,-0.1382028046147077,0.9909034374401917,-0.2932086310709796,2.351036893917553,-0.14893986245882343,25.42
1.0,-0.05254735740654796,-0.1379145544211491,0.9907490607357758,-0.2812381297842167,2.3565981709012465,-0.06406401112828046,25.52
1.0,-0.052543394166291765,-0.13761617910395532,0.9904767975209023,-0.25582510707546174,2.351048815168675,0.03347240413890831,25.52
1.0,-0.05254004256996336,-0.13732875659030944,0.9901192130511407,-0.21792823478254492,2.3396988309062783,0.14210150441908379,25.52
1.0,-0.05257039295862981,-0.13707257349639917,0.9897133203213565,-0.1688966503131134,2.3267145091485637,0.2591725293377267,25.52
1.0,-0.052664435148050893,-0.13686501994859757,0.9892971489719359,-0.11046816102109373,2.3148534082005456,0.3810777812257971,25.47
1.0,-0.05284819815552478,-0.13671966447305633,0.9889075934427957,-0.044725359040828375,2.3052322060801798,0.5034891256053655,25.52
1.0,-0.05314331140668593,-0.13664563003842237,0.9885780116187679,0.025999463388205357,2.2974558208315012,0.6218147310432132,25.61
1.0,-0.053566554195548954,-0.13664670654746935,0.9883350470664565,0.09925147113813086,2.290279625296116,0.7318768969807858,25.47
1.0,-0.05412857899551615,-0.1367209198228978,0.9881965395855341,0.17258418154618108,2.2825359097423865,0.8305427155145931,25.57
1.0,-0.05483123621704463,-0.1368613085059063,0.9881713748068501,0.24360894303027553,2.2738436215437994,0.9159699493787115,25.57
1.0,-0.05566492254062804,-0.13705743268740964,0.9882600615386123,0.30987612112524365,2.2647775322901773,0.9873599623521734,25.57
1.0,-0.05660785866640017,-0.1372968672783078,0.988455742902831,0.36865817900425046,2.256474263495906,1.0444057282733243,25.57
1.0,-0.057628209992088224,-0.13756654127459297,0.9887461156311768,0.4168818340950468,2.2499709648656485,1.0867615878190633,25.52
1.0,-0.058688880016530935,-0.13785419683673927,0.9891153491442746,0.4513746823382821,2.245709718679456,1.113760517683773,25.42
1.0,-0.05975355695792935,-0.13814999294448538,0.9895445347730288,0.46927660438189217,2.2433317626471982,1.1243763303338912,25.52
1.0,-0.06079205876268235,-0.13844774357388331,0.9900101427344683,0.4682675120079523,2.24163262927207,1.1172386178948301,25.52
1.0,-0.06178350586742336,-0.13874612801540848,0.9904824655467902,0.44638195610687265,2.2387220801070984,1.0905000148924844,25.52
1.0,-0.06271661858627973,-0.1390497896769103,0.9909285409613214,0.4015109590998463,2.2322623049830943,1.0416097529275377,25.52
1.0,-0.06358856867151604,-0.13936722817519323,0.9913223660366273,0.3309732984898147,2.2188224233776244,0.9673165030325381,25.47
1.0,-0.06440572717003688,-0.13970521129441577,0.991660811447319,0.23165272830750747,2.1909448766529245,0.8642107324139964,25.47
1.0,-0.06518553840212253,-0.14006549325307843,0.9919809907130859,0.10104586560632689,2.1313316342154183,0.7298860120312188,25.57
1.0,-0.06595282999794104,-0.14044526597577447,0.9923735180031142,-0.06093241094137607,2.004718093041791,0.5644247998626986,25.52
1.0,-0.06672609056244601,-0.14083631782518705,0.9929841656224698,-0.2500037553471637,1.7486068112907862,0.37153051511617796,25.52
1.0,-0.0674973641008751,-0.1412243591035867,0.9939975490223799,-0.4561649098900377,1.2650532177240206,0.15872624175838881,25.52
1.0,-0.06821326514839629,-0.14159760176143038,0.9956032535420566,-0.6634108481612124,0.4173645577289983,-0.06354109774090569,25.52
1.0,-0.0687602581694915,-0.141960133330264,0.9979520899222765,-0.8506029695062938,-0.9640849911364783,-0.2839852119163561,25.47
1.0,-0.06895677097520204,-0.14232904849878472,1.001113488695411,-0.9934686251570521,-3.0661229034572,-0.493650386060193,25.47
1.0,-0.0685596444905399,-0.14271698337681235,1.0050461166788047,-1.0678571142732625,-6.072121390699034,-0.6892292198368832,25.52
1.0,-0.0672820092523538,-0.1431237983878399,1.0095914554798813,-1.0535343267500716,-10.143312337527487,-0.8749283716149686,25.52
1.0,-0.06480941191108826,-0.1435370947783883,1.0144900470778984,-0.9368310716812387,-15.405430482543357,-1.0616637446059087,25.52
1.0,-0.06081423550976607,-0.14392946596219092,1.0194088310066578,-0.7111252370511986,-21.9396675851536,-1.2637944748943999,25.47
1.0,-0.05497384726712842,-0.14425578478160478,1.0239673176733506,-0.37557180282880487,-29.774428600595485,-1.4949443917197267,25.57
1.0,-0.04699009989337119,-0.1444558623373317,1.0277590427147616,0.06670336362522516,-38.87584826447757,-1.76445611912725,25.57
1.0,-0.036607490766108794,-0.14446261068109775,1.030372343907871,0.6096681064353743,-49.139310641404336,-2.0751039352589205,25.52
1.0,-0.023624737368924422,-0.1442122141635666,1.031416533086308,1.2441362305780772,-60.38605186195684,-2.422169924645441,25.52
1.0,-0.007897618547708046,-0.14365326961749042,1.030554773298983,1.9568299063605528,-72.36766321587406,-2.7940539444250443,25.52
1.0,0.010659346428556163,-0.14275437955569142,1.0275368324877563,2.7300077431555962,-84.77898836930711,-3.174419225648404,25.47
1.0,0.0320675716855756,-0.14150803441096652,1.0222225025120406,3.5423019389788846,-97.2775474587717,-3.545195029424664,25.57
1.0,0.056278471675338754,-0.13993020389790467,1.0145897623167415,4.370300844261469,-109.5064678995693,-3.8893337504121503,25.47
1.0,0.0831715591761947,-0.1380573002925987,1.0047266567048831,5.190055733674459,-121.11755257285779,-4.192589664203137,25.47
1.0,0.11255779846871114,-0.13594016057241237,0.9928117063536992,5.9781689416221155,-131.79102244429842,-4.444268554554485,25.52
1.0,0.1441855726007793,-0.13363564927253324,0.979090204648701,6.712640807845454,-141.24972182574066,-4.637277857131831,25.57
1.0,0.17774724466677916,-0.13119960223586924,0.9638513155553539,7.373741191765575,-149.26778258797717,-4.767772517885212,25.61
1.0,0.21288716188434026,-0.12868367583531098,0.9474069710417077,7.944900534328689,-155.67464819373254,-4.834509761302958,25.52
1.0,0.2492129897540348,-0.12613495893768248,0.9300723739972745,8.41327181891344,-160.3550543282135,-4.837998540413404,25.52
1.0,0.28631221822894753,-0.12359560822747963,0.9121517840322793,8.769576435796228,-163.24631816654357,-4.779694906652289,25.57
1.0,0.32377154047476175,-0.12110281466607377,0.8939334980928679,9.007361700060047,-164.33535667804387,-4.661746303585524,25.57
1.0,0.36119146889244147,-0.11869067443164258,0.8756896017536216,9.122343892769065,-163.6565902540742,-4.487620508163679,25.47
1.0,0.39819245870091147,-0.11639094293844139,0.8576726590843172,9.112249658512127,-161.2896102979791,-4.26307695620408,25.52
1.0,0.4344165625724342,-0.11422979849641134,0.8401086003888543,8.976995745488685,-157.35519433176003,-3.996467086516086,25.52
1.0,0.4695298157585146,-0.11222348993245682,0.8231901323092063,8.719111808816574,-152.0093531512886,-3.69802725232375,25.52
1.0,0.5032271650880334,-0.11037717331114215,0.8070720614424132,8.34441642584521,-145.43583257940966,-3.3785865799021297,25.57
1.0,0.5352389963880815,-0.10868746402114007,0.7918665630079823,7.862553384864102,-137.83756009955806,-3.048215777380318,25.57
1.0,0.5653375152958231,-0.10714610386897086,0.7776380893123984,7.286866013482859,-129.42718425315772,-2.7151966074559013,25.47
1.0,0.5933418014871351,-0.10574301965043963,0.7644016922055744,6.633506709360404,-120.41689622960527,-2.3855447180801606,25.47
1.0,0.6191209069989487,-0.1044682724688208,0.7521296022346698,5.920079447021654,-111.00874983835293,-2.0631119513452596,25.47
1.0,0.642593606866864,-0.10331260736658676,0.7407670157203523,5.164307098885714,-101.38780547025466,-1.7500868758236217,25.57
1.0,0.6637242188420267,-0.10226764103800182,0.7302517272076487,4.383232464507386,-91.71988325979801,-1.4476459344428725,25.52
1.0,0.682517390931131,-0.10132682438620312,0.7205283596721875,3.5931359139442502,-82.15332888225475,-1.1566010061619205,25.52
1.0,0.6990146060055817,-0.10048657830015738,0.7115515190392722,2.8098268654539225,-72.82204077317051,-0.8779539176347751,25.52
1.0,0.7132908974362001,-0.09974606867252868,0.7032803766802835,2.04873261982485,-63.846966653008145,-0.6132215230783816,25.61
1.0,0.7254502766249282,-0.09910526441994903,0.6956717416287013,1.3244512531210615,-55.33504427043199,-0.3644165603885991,25.52
1.0,0.7356211951110444,-0.09856318207608993,0.6886769230934771,0.6499163496785872,-47.376418215706146,-0.13371891459888416,25.52
1.0,0.7439514824246278,-0.0981179319143905,0.6822431693489965,0.0355926669816326,-40.04150519145302,0.0769459354359679,25.57
1.0,0.750601461561739,-0.09776762031671209,0.676317579104461,-0.5110117630007206,-33.37914665270516,0.2661305223270295,25.47
1.0,0.7557379258968447,-0.09751057241828849,0.67085141887975,-0.985452538335708,-27.416395119140457,0.4328314799178872,25.57
1.0,0.7595313090650616,-0.09734488283184577,0.6658046344352958,-1.3861345111124148,-22.15997050157805,0.5764071876063951,25.57
1.0,0.7621541345633878,-0.0972682697346545,0.6611499441330656,-1.7139501167356574,-17.59908310973747,0.6965438857592802,25.47
1.0,0.7637785807724126,-0.09727854786085595,0.6568732677394383,-1.9719388808687768,-13.709018263674498,0.7931633515072595,25.57
1.0,0.7645731987719291,-0.0973736043684154,0.6529694739676999,-2.164947183577515,-10.45471420429396,0.866263598658673,25.57
1.0,0.7646995232036383,-0.09754978113341088,0.6494365528161349,-2.299153333810423,-7.793603927727728,0.9158870860517795,25.52
1.0,0.7643099122921941,-0.09779975420608837,0.6462701589802485,-2.3814437045463746,-5.677233872012565,0.9423633125764422,25.52
1.0,0.7635473986809581,-0.09811214133942854,0.643459477892768,-2.4188144572205816,-4.051914967792583,0.9466939434517103,25.52
1.0,0.7625454353074369,-0.09847369851915763,0.6409869853782938,-2.4180126651554312,-2.8595918838522594,0.9307789422334651,25.52
1.0,0.7614252166695836,-0.09887256231602987,0.638832314586639,-2.3854331670696913,-2.039897030373639,0.8973076515819273,25.61
1.0,0.7602916550137884,-0.09929958295079434,0.636975790039624,-2.32706579223283,-1.5329462994041985,0.8494056088699968,25.52
1.0,0.759230829418399,-0.09974722816122707,0.6353980913856533,-2.248382043811844,-1.2816040218731295,0.7903088539481966,25.52
1.0,0.7583103207553724,-0.10020852521660453,0.6340778984621267,-2.1543376843151414,-1.2325889730004602,0.7233551069072703,25.52
1.0,0.7575816707512962,-0.1006774612727791,0.63299133637649,-2.0496865228360877,-1.3369868383682313,0.6524018188966922,25.52
1.0,0.7570830448673405,-0.10115019047400359,0.6321136505227679,-1.9394371332081155,-1.5510728886189802,0.5823476811193747,25.47
1.0,0.7568408442690857,-0.10162534785132302,0.6314205163192925,-1.8289845711341386,-1.8374130042460113,0.5191517408439382,25.57
1.0,0.7568701448543398,-0.1021025650717199,0.6308877262959811,-1.7236880300121555,-2.165419244520364,0.4691375533452481,25.57
1.0,0.7571736634425581,-0.10258092008430486,0.6304912895666184,-1.6281643783010447,-2.5110369991270867,0.43795671131364805,25.57
1.0,0.757739673222804,-0.1030585467037048,0.6302092728824682,-1.5456854673245333,-2.855926245538293,0.4296803140937206,25.57
1.0,0.758541299275318,-0.10353272658633755,0.6300230166658376,-1.4778658581051938,-3.186533140543339,0.44630117627441124,25.57
1.0,0.7595389351329305,-0.10400060813365629,0.6299162093163699,-1.424668269779049,-3.493263191133885,0.4877326199378269,25.57
1.0,0.7606848889702031,-0.10446032731230885,0.6298735524882393,-1.3846551190614986,-3.76966667304235,0.5521597602147167,25.57
1.0,0.7619286600259086,-0.10491155268022245,0.6298805534435608,-1.3554149681097796,-4.01143034332008,0.6364908607518139,25.57
1.0,0.7632215287361704,-0.10535557094777899,0.6299239876030347,-1.3341444518465697,-4.215389746075227,0.7367394082820853,25.47
1.0,0.764519687140585,-0.10579508722134932,0.6299923755207126,-1.3182617798109197,-4.3791580602639355,0.8483005188439469,25.61
1.0,0.7657864409676007,-0.10623378325855681,0.6300766364790397,-1.305783151269286,-4.50161458986763,0.9661521710736722,25.61
1.0,0.766993821933928,-0.10667578791761204,0.6301692772080316,-1.2953245071864843,-4.583619538733236,1.0849868859100231,25.52
1.0,0.7681230476689835,-0.10712463014076608,0.6302607086495279,-1.2859120634058203,-4.6279708937810184,1.1993241375285726,25.61
1.0,0.7691634772038689,-0.1075818282801767,0.6303357418352916,-1.2768371036235087,-4.638402757052508,1.3037849069710157,25.57
1.0,0.7701106092138916,-0.10804645839720484,0.6303737228217909,-1.2675437857757803,-4.618429968605957,1.3935834662333801,25.52
1.0,0.7709646816737162,-0.10851644116773322,0.630352283787801,-1.2574548341698286,-4.570824488281656,1.4649806729145332,25.52
1.0,0.7717302046545346,-0.10899046757331383,0.6302522581372582,-1.245803124092255,-4.497721482312824,1.5154547031247034,25.52
1.0,0.7724150769895579,-0.10946863890478217,0.6300604395100307,-1.2316333137856148,-4.400926727833427,1.5436293470038525,25.61
1.0,0.7730291261161009,-0.10995146954318497,0.6297692583066706,-1.2140432531566279,-4.282132196455414,1.5491288347153636,25.61
1.0,0.7735825615802057,-0.11043907821046164,0.6293760808412281,-1.1925401007958074,-4.142986684161222,1.5324346564394635,25.52
1.0,0.7740843416781337,-0.11093113938456141,0.6288840131740281,-1.1672592129128796,-3.985207383935178,1.494687896944868,25.52
1.0,0.7745414557374858,-0.11142614810302015,0.6283026583088461,-1.1388501323978688,-3.8109744205619855,1.4374141674810046,25.57
1.0,0.7749599015790002,-0.11192018811038773,0.6276466862224068,-1.1080679114486243,-3.623477171596982,1.3623176870127254,25.66
1.0,0.7753459501967724,-0.11240692822270261,0.6269323668356303,-1.075392110352303,-3.4271328081444015,1.2712570634022193,25.57
1.0,0.7757060567249724,-0.11287915690171717,0.6261739637936798,-1.0409750622752445,-3.2271525630174045,1.166315707033344,25.57
1.0,0.7760458139876155,-0.11333033222860563,0.6253812702756405,-1.0048579213115034,-3.0285556580787114,1.0498763469256711,25.66
1.0,0.7763692202676721,-0.11375477338763648,0.6245591826862448,-0.9672082206810326,-2.835134051941776,0.9247249542752516,25.57
1.0,0.7766787091578495,-0.11414714105986441,0.6237105803457849,-0.9284459697116625,-2.6489915418334538,0.794187674042801,25.57
1.0,0.7769758538856684,-0.11450260125122862,0.6228408124207417,-0.8892251467379799,-2.4708419659259326,0.6621992752704382,25.57
1.0,0.7772623111911658,-0.11481776565005536,0.6219594363262259,-0.8503317232539859,-2.300686385195997,0.5332074891231475,25.57
1.0,0.77754044937718,-0.11509199988152502,0.6210786791069944,-0.8126512612203414,-2.1384567530780942,0.4119184538730502,25.57
1.0,0.7778135058726127,-0.11532850343306197,0.6202115685626185,-0.7772457638499657,-1.9844759276056898,0.3029003385514279,25.57
1.0,0.7780850176354516,-0.11553394676162933,0.6193710218293978,-0.7453868450381022,-1.839639529374903,0.21006693155069048,25.61
1.0,0.7783574133872085,-0.11571661110800542,0.6185695003683939,-0.7184162483281232,-1.705285286043184,0.13622470276288082,25.61
1.0,0.7786306752783132,-0.11588460072732883,0.6178185721209171,-0.6974840038935199,-1.5828769587725762,0.08294041678884082,25.61
1.0,0.7789021898692101,-0.11604541402135465,0.6171282129502906,-0.6833314175092783,-1.4736094355490796,0.050757040163788035,25.61
1.0,0.779167967992557,-0.11620645973406164,0.6165063617564323,-0.676247803515923,-1.3780225794059997,0.03952813680621424,25.61
1.0,0.7794240955182721,-0.1163749124091344,0.6159592032182651,-0.6761538495651497,-1.2958024749919195,0.048629493718076844,25.52
1.0,0.7796668104916291,-0.11655655014746431,0.6154918260297289,-0.6826524503119945,-1.2258570922245848,0.07696851065041072,25.61
1.0,0.7798914974361228,-0.11675479431855738,0.615107842544266,-0.6949986836840556,-1.1665913270807708,0.12288360163943336,25.52
1.0,0.780092555750846,-0.11697067914566738,0.6148078127482749,-0.7121075378349402,-1.1163141955285274,0.18407810211857148,25.71
1.0,0.7802648962793152,-0.1172032367068635,0.6145881301749271,-0.7326852225556875,-1.0736465407819897,0.2576546957440668,25.61
1.0,0.7804063195361001,-0.11744953067781247,0.6144408546430077,-0.7553918061577928,-1.037677165667711,0.34025615166746376,25.61
1.0,0.7805198144042688,-0.11770456333170937,0.6143536341258369,-0.7789297124238186,-1.007806719336894,0.42832179012356614,25.52
1.0,0.7806141026976013,-0.11796161885886994,0.6143097008617229,-0.8020759605940889,-0.9834674518466522,0.5184672333149385,25.61
1.0,0.7807011439878399,-0.11821301244388312,0.6142890274932571,-0.8236411789648667,-0.9638297083445497,0.6079470525838986,25.57
1.0,0.7807925643940309,-0.1184511626079243,0.6142710820659334,-0.8423284556705063,-0.9475030367594346,0.6950721722883437,25.57
1.0,0.7808982091222167,-0.11866957475552829,0.6142375249300398,-0.8566597256470387,-0.9323633771910069,0.7794087126245989,25.57
1.0,0.7810268467378374,-0.11886363569633614,0.6141730518389024,-0.8651172183276922,-0.9155443340789995,0.8616239063510628,25.57
1.0,0.781186016058803,-0.11903181373169049,0.6140655930482748,-0.8663816924528717,-0.8933332681681582,0.9429810735960981,25.57
1.0,0.7813793145442688,-0.11917625609393477,0.6139077083052932,-0.8595271405254562,-0.8610070892678708,1.0246745246874855,25.57
1.0,0.7816032479870613,-0.11930164458243495,0.6136985678044571,-0.8441630306444664,-0.8131530961894523,1.1072333633946116,25.57
1.0,0.7818465526548575,-0.1194136579040044,0.6134458214708591,-0.8204655870534179,-0.7447407582071952,1.190133390626792,25.66
1.0,0.7820922355450389,-0.11951848282981695,0.6131665163877766,-0.7890051984082228,-0.652525406654639,1.271714215249503,25.57
1.0,0.7823205213170676,-0.1196229081582545,0.6128847096557891,-0.7504646359861078,-0.5360607788892505,1.3493974977417884,25.57
1.0,0.7825116074378549,-0.11973379941937584,0.6126255296399972,-0.7055003732334051,-0.3978080176568432,1.4200626285120381,25.57
1.0,0.7826484664557715,-0.11985665161181529,0.6124094134246337,-0.6548393041801296,-0.24237783003436988,1.480458801928779,25.57
1.0,0.7827192631293554,-0.11999416651700814,0.6122502252820284,-0.5993991422949992,-0.0753852476387678,1.5275944308925644,25.57
1.0,0.7827184093609256,-0.12014618708311865,0.6121564199474762,-0.5402153925124455,0.09754219417558095,1.5590337226714537,25.57
1.0,0.782646532869904,-0.12031097766435989,0.6121321125384006,-0.47825769633794896,0.27124128510569684,1.5730902366973463,25.57
1.0,0.7825097933157468,-0.12048654101504866,0.6121779725720168,-0.4143617341510141,0.44094862002919105,1.5689488705900567,25.66
1.0,0.782318138604279,-0.12067147289868872,0.6122928011109969,-0.34932864255124263,0.6020577947571389,1.5466724248421444,25.66
1.0,0.7820829830749956,-0.12086498544819425,0.6124750159163586,-0.28404568040935346,0.7501713437542616,1.5071140841097848,25.57
1.0,0.7818155589487102,-0.1210655650382904,0.6127238150970715,-0.2194722864781482,0.8815906696528505,1.4518751190384267,25.66
1.0,0.781525923854698,-0.12126948197419006,0.6130392073653685,-0.15648762986153772,0.9939486125386854,1.3832877304897313,25.57
1.0,0.7812218847113507,-0.12147082037715287,0.6134201232894719,-0.09575967684443816,1.0865653134281676,1.3042232866020773,25.66
1.0,0.7809086971391124,-0.12166338060336693,0.61386249939657,-0.03778428513396766,1.160342396668617,1.2176778663722563,25.57
1.0,0.7805904064778904,-0.1218433006514098,0.6143592101546452,0.016931032816352356,1.2172538135452509,1.1263486024978597,25.75
1.0,0.7802709085706638,-0.12200993130241711,0.6149011730827305,0.06770463944145874,1.2595422106557423,1.0324148619376634,25.57
1.0,0.7799535652735173,-0.12216434312036839,0.6154778449756746,0.11370182355217694,1.2888739857349696,0.9375358346923466,25.66
1.0,0.7796415365694426,-0.12230758194415066,0.6160765132973454,0.1541457343673184,1.3058631840616213,0.8429611251106132,25.57
1.0,0.7793394737900614,-0.12243988500467635,0.6166811021272179,0.18855816993024688,1.310207619868704,0.7496606167108053,25.66
1.0,0.7790538176778591,-0.12256069021632701,0.6172719654940653,0.21687818280254129,1.3013688624343276,0.6584203113718778,25.66
1.0,0.7787907392155908,-0.12266901710076869,0.6178278736524238,0.23942770003705446,1.279421695912081,0.5699180535967275,25.71
1.0,0.7785540232138188,-0.12276366889236047,0.6183289887435617,0.25678457651832975,1.2455944122790088,0.4848182261848463,25.71
1.0,0.778344540137748,-0.1228437247059774,0.6187591505031991,0.2696474561150967,1.202293756320392,0.4038452203078413,25.52
1.0,0.7781611555125877,-0.12290973184369047,0.6191074972664228,0.2787258225284775,1.1526972440498757,0.32774446571382565,25.52
1.0,0.7780019394317258,-0.12296453331352644,0.6193692228592623,0.2846291329124723,1.100105199181224,0.25714586881246615,25.61
1.0,0.7778646799272397,-0.12301301009893649,0.6195450106773323,0.28775682260812047,1.047326310107211,0.19246453040023592,25.71
1.0,0.7777468742339249,-0.12306074385685341,0.6196395385891871,0.2882694894659206,0.9963645632207817,0.1339104079439701,25.57
1.0,0.7776456830456128,-0.12311197385084632,0.6196595611033408,0.2862107956728287,0.948461810162772,0.08156129908204328,25.57
1.0,0.7775581646922782,-0.1231687676539157,0.6196125560957156,0.2816969885289804,0.9042954560752368,0.035443056559320785,25.66
1.0,0.7774819107606659,-0.12323248494821372,0.6195077387047176,0.2749873657005959,0.8640622702283364,-0.00442813845835274,25.57
1.0,0.7774157510857074,-0.12330526808322176,0.619358148806525,0.2663924802798787,0.827381165830013,-0.03807593134331346,25.57
1.0,0.7773599846261454,-0.1233891430819584,0.6191795030826716,0.25618247713790937,0.793287517803633,-0.06562967230228213,25.75
1.0,0.7773160634677866,-0.12348364041939096,0.6189863148240546,0.24461897760980614,0.7605842623935681,-0.08733273950523437,25.66
1.0,0.7772861309808724,-0.12358507211334183,0.6187897740918957,0.2320345490540238,0.7283738508155321,-0.10347919650110689,25.61
1.0,0.7772723648008999,-0.12368855961009528,0.6185983030063122,0.21883148478448386,0.6963719995089169,-0.11439140192418186,25.61
1.0,0.7772759953142218,-0.1237904155021365,0.6184193320960896,0.20539422757656847,0.664797060873531,-0.12052242264243943,25.61
1.0,0.7772967439252357,-0.12388885874531017,0.6182611723086477,0.19200287648637154,0.6338655300591691,-0.1226261385357855,25.52
1.0,0.7773333278403715,-0.1239833738515188,0.6181328500938083,0.17884527655208776,0.6032017058167409,-0.1218678349113119,25.71
1.0,0.7773841213929905,-0.12407372929328192,0.6180412655627066,0.1661460569184404,0.5716604530339771,-0.11976942051099411,25.66
1.0,0.7774469435862083,-0.12415963245033317,0.6179885048708361,0.15426164451435437,0.5377250036052614,-0.11794939393957993,25.61
1.0,0.7775186744966851,-0.12424082963407601,0.6179718683993837,0.14358175207034943,0.5001245573898662,-0.11775970708745515,25.61
1.0,0.7775956385822765,-0.1243164878022265,0.6179860338182361,0.13432781913803854,0.4583201182715477,-0.12004547958012296,25.61
1.0,0.7776742184100229,-0.12438429767018543,0.6180250757098225,0.12649011054121398,0.41283210038136736,-0.1251245408040849,25.61
1.0,0.7777507513202137,-0.12444061468240912,0.6180834733459337,0.11996255801883192,0.36538981673386817,-0.13285767042893268,25.61
1.0,0.7778212493822839,-0.1244815047174308,0.6181564579858999,0.11469868682597108,0.3187046421201624,-0.14271723379182472,25.57
1.0,0.777881932495687,-0.12450392170124115,0.6182395835281951,0.1107464695036467,0.27587324615110176,-0.15389221719091623,25.66
1.0,0.7779301976025585,-0.1245068602481066,0.6183282598175962,0.1081860508632145,0.23973408653240755,-0.1654234407953129,25.66
1.0,0.7779650969079029,-0.12449207348813483,0.618418011845432,0.10703353931936196,0.21243682580295284,-0.17630655850137528,25.57
1.0,0.7779866538813301,-0.12446356413424386,0.6185044420505105,0.10713548125060318,0.19526841855028385,-0.1855645230748054,25.66
1.0,0.7779942243811316,-0.12442601641309141,0.61858319048398,0.10810452231649223,0.18869895145205307,-0.19234712024222772,25.66
1.0,0.7779852976692382,-0.12438321489609296,0.6186515301468166,0.10937036802748443,0.19262307730335346,-0.19605548755415902,25.57
1.0,0.7779555674952408,-0.12433738619535364,0.6187101687597749,0.11031178928358322,0.2066749117154083,-0.1964030993029592,25.66
1.0,0.7778996737434101,-0.12428942751493433,0.6187628543219214,0.11035818275653983,0.23036783203003783,-0.1933620792588206,25.57
1.0,0.7778121912150424,-0.12423923015475058,0.6188146771410122,0.10906065998302364,0.2630165684110676,-0.1870530934472104,25.61
1.0,0.7776891101952601,-0.12418590793915318,0.618870886217678,0.10617836722114987,0.303669278015882,-0.17765671123128954,25.71
1.0,0.7775297056263257,-0.12412848814146338,0.6189361654606662,0.10169863764978801,0.35112164586667277,-0.16537973373360573,25.71
1.0,0.7773379604738924,-0.12406719326208852,0.6190138825358373,0.09570955875717789,0.40385896878402056,-0.150499193002928,25.71
1.0,0.7771219912251434,-0.12400392358351044,0.6191055066146912,0.08823674875578306,0.4599328701927807,-0.13346384117912874,25.61
1.0,0.7768912498689571,-0.12394095942387777,0.6192105179573846,0.07923655562797156,0.5169553665782061,-0.11492425029361679,25.71
1.0,0.7766539970613582,-0.12387960048649707,0.619326543204369,0.06876717881981047,0.5722656479695098,-0.09557556158088601,25.71
1.0,0.7764166269020027,-0.12382033849431705,0.6194493649768422,0.05715874191215354,0.6231996974907604,-0.07589698875730763,25.71
1.0,0.7761839847681153,-0.12376391159173836,0.61957383259769,0.04500693821261274,0.6673888001326728,-0.05600458798546872,25.61
1.0,0.7759602334113866,-0.12371179719794086,0.6196959158223394,0.0329971929178143,0.7030275970348672,-0.035735498701149546,25.71
1.0,0.7757497397087556,-0.123665363561558,0.6198137517376975,0.021705771468548192,0.729075523794834,-0.014863595796807145,25.71
1.0,0.775556647679747,-0.12362446187998506,0.6199270859342948,0.011498530025152618,0.7453170935780453,0.006760893865982477,25.61
1.0,0.7753836536563591,-0.12358666609827533,0.6200364813913305,0.0025699263964986925,0.7522222479116536,0.029221919983568923,25.66
1.0,0.7752318978485411,-0.12354755198984453,0.6201422121822763,-0.004886685128784309,0.7507312993827747,0.05260431002068133,25.66
1.0,0.7751023316124093,-0.123501710710831,0.6202427552801595,-0.010486047738952975,0.7421523321131572,0.07702298277648507,25.57
1.0,0.7749971515946142,-0.12344375911804648,0.6203349743366001,-0.01361240961909516,0.7281095998942444,0.10258290850767621,25.66
1.0,0.7749199463193989,-0.12336923139519404,0.6204169222975665,-0.013570431190899183,0.710300700602552,0.12928123375390077,25.57
1.0,0.7748746313642054,-0.12327559606186787,0.6204900620735911,-0.009771339861583251,0.6900714549799181,0.15693191752994842,25.66
1.0,0.7748640426289214,-0.12316278047430054,0.620557886700856,-0.001825135062403428,0.6681330735364379,0.18520828983584833,25.66
1.0,0.7748889351963786,-0.12303312490132223,0.6206226438791569,0.01044685836628469,0.6446742071310516,0.21376801156979164,25.57
1.0,0.7749479726487833,-0.12289120070915006,0.6206835037936873,0.027018374227852908,0.6198049566399759,0.24232182390251988,25.57
1.0,0.7750385127657176,-0.12274286705692725,0.6207370094540285,0.047684779738159974,0.5940636714458621,0.27061140746147017,25.61
1.0,0.7751575461060757,-0.12259416848239964,0.6207786596095687,0.07212569601831695,0.5687590504491316,0.2983969849545282,25.61
1.0,0.7753023437585497,-0.12245138392858378,0.6208048221637321,0.09994701800213586,0.5460480080913767,0.32551249638321705,25.71
1.0,0.7754702744713131,-0.12232107599230767,0.6208151645141841,0.1306529473068409,0.5287044572689988,0.35192143632773365,25.61
1.0,0.7756581902815608,-0.12220952149141014,0.6208150753491822,0.16358902744275564,0.5195892146871723,0.3776833777619091,25.71
1.0,0.7758626545715854,-0.12212271364319374,0.6208162592448573,0.19791032743580012,0.5209383458717317,0.4028297681150675,25.61
1.0,0.7760808550929561,-0.12206639147318343,0.620834180410556,0.23259674380079404,0.5337172941973177,0.4272426931677169,25.71
1.0,0.7763103143603305,-0.12204542858411063,0.6208831956134037,0.26653357073521133,0.557406255373659,0.45065345033888843,25.61
1.0,0.7765467447696439,-0.12206342845982873,0.6209722497430058,0.29862973407778165,0.5904230038723409,0.47278801464628323,25.61
1.0,0.7767828579823502,-0.12212255974429953,0.621103786279125,0.3278768892211416,0.6309039336543532,0.49354148287638205,25.61
1.0,0.7770100621357244,-0.12222341890078241,0.6212759315250174,0.35329855963373835,0.6773206136284601,0.5130122343336118,25.61
1.0,0.7772202390003415,-0.12236498529725097,0.6214858573570415,0.37385161598801603,0.7285852920154751,0.5313364495029149,25.61
1.0,0.7774051862725202,-0.12254456208963034,0.6217323962719703,0.38838920862093385,0.7835948705424061,0.5484426237782513,25.61
1.0,0.7775556892000469,-0.12275776408270236,0.6220165750978617,0.3957743519688882,0.8405449600531004,0.5639213539255059,25.61
1.0,0.7776626462748024,-0.12299854525732451,0.6223391911119117,0.3951361044517668,0.896550692944144,0.5770985080051226,25.61
1.0,0.7777192127518799,-0.12325977014357548,0.6226968759503351,0.3861314193066299,0.9478771928863723,0.5872234794831701,25.61
1.0,0.7777216122491097,-0.12353450966617148,0.6230795136746727,0.3690464777706464,0.9906886751956511,0.5936325808750551,25.71
1.0,0.7776685481448786,-0.123816896036604,0.6234703532034577,0.34468624619418536,1.0219499692792315,0.5958208442381573,25.61
1.0,0.7775604612287983,-0.12410176257825964,0.6238493937641936,0.314156160213867,1.040079395519579,0.59342097397153,25.71
1.0,0.7773991164733317,-0.12438389505684529,0.6241989082814616,0.27867920301438703,1.0450492536028932,0.5861596112019025,25.61
1.0,0.7771874694192479,-0.12465819818484913,0.6245067827439335,0.2395388560402851,1.0378360257131962,0.5738876029479689,25.71
1.0,0.7769297006154068,-0.12492032241526381,0.6247654301056815,0.19815149889349018,1.019578919111097,0.5566526609226728,25.71
1.0,0.7766312637066148,-0.125166384656741,0.6249690522743768,0.15615141633092122,0.991057396194408,0.5347022740931208,25.71
1.0,0.7762984158030451,-0.1253924860353664,0.6251126201903525,0.11536118381789422,0.9527837985879385,0.5084294462487594,25.61
1.0,0.7759370596383206,-0.1255950437076995,0.6251928032248345,0.0776360021022622,0.9055127089436847,0.47834829870934176,25.61
1.0,0.7755523942502565,-0.12577085461347093,0.6252090894214879,0.04465890774104883,0.850697699350292,0.44507864992150314,25.71
1.0,0.7751501797928126,-0.1259165412762228,0.6251644496440659,0.017808077498143282,0.7905391962774697,0.40926678288422064,25.66
1.0,0.7747378619679772,-0.12602880909371922,0.6250658639574546,-0.001829525195913034,0.7276448619107105,0.3714678080792723,25.71
1.0,0.7743239957405942,-0.12610524881673993,0.6249242758699669,-0.013388129600682471,0.6646063767704182,0.3320666806240217,25.61
1.0,0.7739167261410593,-0.1261445426986233,0.6247537982633191,-0.01626018964212037,0.6038080061309558,0.2912499510194975,25.71
1.0,0.7735231831955137,-0.12614667349272884,0.6245706794405598,-0.010262993059999089,0.5475345316283302,0.24901181919848792,25.71
1.0,0.7731502358834961,-0.12611283706372714,0.6243920991544746,0.004228744673746976,0.4981310218077888,0.20520216485660264,25.61
1.0,0.7728051815517432,-0.12604463549680053,0.6242349448004328,0.026352914614428055,0.4579438599046629,0.1596207575505962,25.71
1.0,0.7724952882646133,-0.12594426019857327,0.6241149376333718,0.0549969822889296,0.42903211342863046,0.11217198500072327,25.61
1.0,0.7722269232941187,-0.12581546631849486,0.6240456753590409,0.08899157385502937,0.4128591598268198,0.06305508361948449,25.61
1.0,0.7720050168103323,-0.12566351485585897,0.6240363947151353,0.12715405428200544,0.4102570083491569,0.012860369012783318,25.61
1.0,0.7718320287338492,-0.12549441209453482,0.6240890830471894,0.1682519734227789,0.4218665529701278,-0.03750589424714296,25.61
1.0,0.7717060230757997,-0.1253141737409243,0.6241976361088443,0.21094991005378536,0.44895297536157874,-0.08699324834677793,25.61
1.0,0.7716189362963495,-0.12512773070689392,0.6243487298323501,0.2538074647583007,0.4943584524948219,-0.1345630033389483,25.61
1.0,0.771555954689576,-0.12493760575476291,0.6245219662500661,0.2953881891017905,0.5635899845651916,-0.17924699513690784,25.75
1.0,0.7714956818029024,-0.12474355608075154,0.6246898609807686,0.33440801381157576,0.6661560793964858,-0.22012108170497963,25.71
1.0,0.7714099961079774,-0.124543846948648,0.6248191835419312,0.36985317331778167,0.8171335297086185,-0.2562704513575141,25.61
1.0,0.7712621850701827,-0.12433680430528195,0.624873008764501,0.4011048891010662,1.0389755454948815,-0.286731394615341,25.71
1.0,0.771002724473713,-0.12412097225985204,0.6248112012087168,0.42808174661923265,1.3638686135806297,-0.3103613090418909,25.57
1.0,0.7705655885674993,-0.12389473095558175,0.6245885472143051,0.4512163378767212,1.8372861381272108,-0.3256119184564091,25.71
1.0,0.7698692184651265,-0.12365755891048447,0.6241539438018057,0.4708295056038658,2.5230981422716936,-0.33013704737381294,25.61
1.0,0.7688220812960282,-0.1234131952795484,0.6234545461219587,0.48561049251902905,3.5092298141400784,-0.3204025169158155,25.61
1.0,0.767327702503779,-0.12317234163103419,0.6224464278709533,0.4906502947825781,4.895788589023398,-0.2918210112235972,25.66
1.0,0.7652811386931093,-0.1229520165891626,0.6211139447228139,0.47610876242059663,6.737274212246629,-0.23965859196731334,25.66
1.0,0.7625537396034382,-0.12277041795591154,0.6194972179964324,0.4276153662876093,8.969298836498924,-0.16025721120670378,25.66
1.0,0.758975564400589,-0.1226390074060632,0.6177179107715753,0.32896906121305575,11.39164945781164,-0.05183894211334779,25.71
1.0,0.7543307652708505,-0.12255685363589117,0.6159929431476624,0.16660526483392535,13.709760384126104,0.08564457165763623,25.71
1.0,0.748373042199844,-0.12251191780861347,0.614633740036854,-0.06597289264330525,15.600744477697924,0.2519475261781503,25.66
1.0,0.7408552944639027,-0.12248939909404172,0.6140298493643684,-0.36596848012171485,16.807190004937862,0.44905308601408234,25.57
1.0,0.7315615108972856,-0.12248289022414498,0.6146167992339876,-0.7221455110591809,17.224675422152103,0.683345167641109,25.57
1.0,0.7203294340576447,-0.12250167451668158,0.616834811804368,-1.1176077027127993,16.914563670008683,0.9654862031013136,25.57
1.0,0.7070563505058947,-0.12257127132776774,0.6210884800559556,-1.5325840814692442,16.051778359351186,1.307635522058192,25.66
1.0,0.6916898307320049,-0.12272923118862505,0.6277142174713588,-1.946353116548973,14.866109669252202,1.7197400044954487,25.61
1.0,0.6742150412497039,-0.12301711838866282,0.6369564304527536,-2.338683495386893,13.598995964078249,2.2070015282260296,25.71
1.0,0.6546487959566891,-0.12347113634031585,0.6489513964276166,-2.6912061948058494,12.47353475030446,2.7693037003997545,25.61
1.0,0.6330394196902668,-0.12411580357110102,0.6637189582580333,-2.988523456044994,11.676346221962657,3.4019727558857467,25.61
1.0,0.6094661240337339,-0.12496096578741393,0.6811629893949529,-3.2187331469509615,11.349199493256346,4.096808136714314,25.66
1.0,0.5840368283818566,-0.1260012090380155,0.7010814257831572,-3.373436213160038,11.587423330600547,4.842831800750418,25.66
1.0,0.5568864308389765,-0.12721874067244593,0.7231836022590299,-3.4476427439601705,12.442351949353242,5.626921310771068,25.66
1.0,0.5281751432708889,-0.12858889954659672,0.7471118517813264,-3.439902837117175,13.925319018878053,6.434502776304154,25.66
1.0,0.49808629538859467,-0.1300851801041103,0.7724663727279052,-3.3525456394182025,16.011130260190548,7.250104198354003,25.66
1.0,0.46682438211449434,-0.13168172102183762,0.79882913917241,-3.1915774217528647,18.640472815873085,8.057601168373377,25.66
1.0,0.43461442078283397,-0.13335335651831626,0.8257811310809205,-2.9658823683733004,21.72246254435327,8.840247191729627,25.57
1.0,0.4017017706258887,-0.13507461225229267,0.8529127306756361,-2.6858435053176173,25.138795057334384,9.580739630172873,25.57
1.0,0.3683495715630577,-0.13681956906465742,0.8798294022255793,-2.3619034888898156,28.749928826802616,10.261516840480335,25.75
1.0,0.33483334917809426,-0.1385633188586699,0.9061531696723827,-2.00356467631863,32.40303482868729,10.865248258342213,25.75
1.0,0.30143503925314813,-0.14028227345180308,0.9315216609136292,-1.619083761625299,35.94141518186033,11.375426706785507,25.66
1.0,0.2684380679893807,-0.14195135296626782,0.9555887186068548,-1.2157548846159634,39.21489085647987,11.77713275606564,25.71
1.0,0.23612358836955316,-0.14354163832820854,0.9780297783104007,-0.8003547027720807,42.09018614163014,12.058082483245416,25.66
1.0,0.20476688790098094,-0.14502218159689428,0.9985524694624598,-0.3794934482526903,44.45977261438722,12.209848120484173,25.71
1.0,0.174633258372499,-0.1463645171421578,1.016910404020158,0.04001194820452908,46.247330351614586,12.228789835980855,25.66
1.0,0.14597347859206775,-0.14754662129595422,1.0329171768643994,0.4507199891302341,47.408705999778434,12.116177928974208,25.66
1.0,0.11901815499386065,-0.1485545548221366,1.0464571630925095,0.8444659237907658,47.9287710121126,11.877415429926682,25.66
1.0,0.09396960218571383,-0.14938110210338068,1.057489014729253,1.2129548696055996,47.815834617921325,11.520782863998578,25.57
1.0,0.07099337255725995,-0.1500228324284662,1.06604084672099,1.548867269813663,47.0955788877632,11.056325389070734,25.66
1.0,0.05021335821275169,-0.15047839849324035,1.0722003944597887,1.8467921037048924,45.80575687806916,10.495305890619637,25.61
1.0,0.03171117727793839,-0.15074828404487403,1.0761027308306923,2.103489469976371,43.992061267772876,9.850162225678885,25.61
1.0,0.015528897313202538,-0.15083497270486548,1.0779162995840723,2.317615593899102,41.705545806797964,9.134562202952086,25.71
1.0,0.0016736545916617301,-0.15074364279302807,1.077829509029813,2.4893052583195883,39.001804640939675,8.36323986350182,25.61
1.0,-0.00987895677150846,-0.15048263878295656,1.0760409725950428,2.6197763505355467,35.941151065654964,7.551573219044495,25.66
1.0,-0.019184752027774955,-0.15006308689706943,1.0727541326837644,2.7109931370736184,32.58868450841263,6.715077559061315,25.66
1.0,-0.026332366963173513,-0.14949777319475385,1.0681747185171369,2.7654894323169197,29.01381500917027,5.869031896153433,25.66
1.0,-0.031442783983267435,-0.1487988922220387,1.0625093342811038,2.786384877666265,25.289243952008576,5.02830540225017,25.66
1.0,-0.03466586975437543,-0.14797599244309206,1.0559644275031468,2.777503230901315,21.48935958586635,4.2072788897370845,25.66
1.0,-0.036175260524767154,-0.14703660391661222,1.0487451008843744,2.743470707682137,17.688184479812676,3.419663866474367,25.75
1.0,-0.03616229603762126,-0.14598943157608407,1.041053462316678,2.689635188814356,13.95715374729736,2.6780887710463577,25.57
1.0,-0.034829048407729664,-0.14484736590287953,1.0330868507948632,2.6216714057560475,10.362808083978967,1.9935186112291914,25.66
1.0,-0.03238131667511152,-0.1436282692748906,1.0250355000077653,2.544967672258255,6.964537921468322,1.3746625268645838,25.66
1.0,-0.02902289809986649,-0.1423539218353431,1.0170793311091226,2.4641191643192086,3.8128062155910323,0.8275202282352115,25.71
1.0,-0.024951724104892367,-0.14104785805723377,1.0093853584868886,2.3827804764778513,0.9481272152424319,0.3552264525876944,25.61
1.0,-0.02035727785827237,-0.13973298717674534,1.0021059470037617,2.3038263178400458,-1.5993072033021911,-0.04171991409834194,25.61
1.0,-0.01541845907378131,-0.1384306674495422,0.9953762673816016,2.229591478088262,-3.8096073704099096,-0.3649192836572552,25.61
1.0,-0.010301129758684795,-0.13716092028029017,0.9893108874348346,2.1620236988178627,-5.672958983023735,-0.6174409623915157,25.61
1.0,-0.005154909756469584,-0.13594235699880594,0.9840003821921397,2.1026781483920707,-7.1890982520281534,-0.8033199397223524,25.61
1.0,-0.00011033749957131621,-0.1347922266373884,0.9795085855697374,2.0525296353200657,-8.366270936407123,-0.9272720438230445,25.61
1.0,0.004722322679964868,-0.13372659621730335,0.9758714844214311,2.011691667256754,-9.219750726305369,-0.9945604270698748,25.61
1.0,0.0092530697112201,-0.1327594643565417,0.9730978614904845,1.9792605806073296,-9.77020423049255,-1.0109050222570704,25.71
1.0,0.013411290429822503,-0.13190103609333403,0.9711711952303791,1.9534413849722727,-10.04218601381555,-0.98239753562998,25.71
1.0,0.01714351986430183,-0.13115644761251852,0.9700533216389421,1.9319242052008982,-10.063029739794647,-0.9153982287852718,25.57
1.0,0.02041059478173931,-0.1305259005590134,0.9696892752404955,1.9123703805106689,-9.862209395224003,-0.8163467051002268,25.66
1.0,0.02318583264032038,-0.13000605801486143,0.970010292359671,1.8928301881976306,-9.470967183416413,-0.6915153145396338,25.66
1.0,0.025455175518663564,-0.1295909266121763,0.9709343987884576,1.8719274525978247,-8.921882638855136,-0.5468784472408599,25.66
1.0,0.02721885639452546,-0.12927173132435005,0.9723680337483243,1.8487693683194735,-8.24810382890546,-0.3881795256959182,25.57
1.0,0.028492367720618732,-0.12903755229229116,0.9742099559936146,1.8227029053707517,-7.482258752256231,-0.22107309580651557,25.75
1.0,0.029304863440145667,-0.12887656209158238,0.9763558332762029,1.7930918064735473,-6.655368428721414,-0.05118467962618309,25.66
1.0,0.029695537009115133,-0.1287761903775151,0.9787030781726336,1.7592387629635,-5.795982334457597,0.11598361136182898,25.66
1.0,0.02970999998311633,-0.128722594001611,0.9811552503739164,1.720493666986249,-4.929506697518624,0.2753131041397211,25.57
1.0,0.029398142867163603,-0.12870063312847785,0.9836245053148049,1.6764800647237146,-4.077706820571273,0.4224401632122332,25.61
1.0,0.02881290688323372,-0.12869462916225874,0.9860324432468132,1.6272824468021345,-3.258493869689382,0.554081623599399,25.61
1.0,0.02800899521415321,-0.1286896495698848,0.9883111504522915,1.5734749186895833,-2.4860315634421353,0.6681493050828218,25.71
1.0,0.02704202150191105,-0.12867318222926896,0.9904051523192553,1.5160260977689097,-1.7710499002844493,0.7636326604210244,25.61
1.0,0.025967915296119796,-0.1286367025645276,0.9922736527814119,1.4561534208622164,-1.1213055281379272,0.8403691525294321,25.71
1.0,0.02484104937767234,-0.1285758511675858,0.9938919156025242,1.395125789609604,-0.542185488964663,0.8988148772792912,25.61
1.0,0.023710863649019417,-0.12848933562026485,0.9952505851570859,1.334067836633782,-0.037340369040809625,0.9398159015928312,25.66
1.0,0.022618968515787697,-0.12837794211355769,0.9963528606654101,1.2738872879958507,0.39083913589978025,0.9643659542878693,25.66
1.0,0.021598182711340445,-0.12824356833833506,0.9972108118421649,1.215343552143678,0.7410127431580052,0.9734092276558739,25.66
1.0,0.020672579390098936,-0.1280879118628902,0.9978422123242157,1.1591561859359187,1.0128888398137168,0.9677666557957836,25.66
1.0,0.019858009829516448,-0.1279118625984328,0.998268539938787,1.1060599707346057,1.2072740958435413,0.9482483636900443,25.66
1.0,0.01916359896961164,-0.12771655141793137,0.9985135282240041,1.0567795095924921,1.3262007365956423,0.9159236534562811,25.66
1.0,0.018593508055350757,-0.12750540335963748,0.9986011795121058,1.011927748910405,1.373250525858808,0.8723663617755422,25.66
1.0,0.018148453261876297,-0.12728516327025227,0.9985536275579839,0.9718461961673276,1.3538769506602915,0.819661243877028,25.75
1.0,0.017827181029560622,-0.12706465705356815,0.9983906596677796,0.9364414641958675,1.2754249297582663,0.7601174648390954,25.61
1.0,0.01762746873646636,-0.12685221060208607,0.9981315454379284,0.9051009247793133,1.146868513476555,0.6958763448118629,25.71
1.0,0.017546197560338084,-0.12665330717531162,0.9977967755436861,0.8767321726136916,0.9783438169744948,0.6286676388604978,25.61
1.0,0.01757840216347049,-0.12646920753394,0.9974077395991398,0.8499230235024131,0.7803513706040592,0.5597766721260571,25.61
1.0,0.017715995192948402,-0.12629685659263032,0.9969859712891467,0.8232333704292268,0.5626370896604647,0.49013691730527403,25.61
1.0,0.017947622974103208,-0.12613007325742445,0.9965527767783158,0.7955914902959202,0.333116556444457,0.4204915108143619,25.61
1.0,0.01826024980384484,-0.1259612056048864,0.9961275232726904,0.7666339816558149,0.09731744094877573,0.3515798858205953,25.66
1.0,0.01864186602395734,-0.12578272014221395,0.9957249347211962,0.7367774875742668,-0.1413827901256736,0.2842689737542076,25.61
1.0,0.019084015789656295,-0.1255886316826252,0.9953531998438003,0.7069373350235171,-0.38084535207030634,0.21955376143750058,25.66
1.0,0.019582469335951664,-0.12537535184483886,0.9950134291905783,0.6780326895173207,-0.6190616342900104,0.15840245026269015,25.66
1.0,0.020135560897855054,-0.12514164534099081,0.9947006456650314,0.6505802354875744,-0.8533373662628986,0.10150550962571347,25.57
1.0,0.0207417465497318,-0.1248877205194332,0.9944059222536251,0.6246166827307167,-1.0799289379314578,0.04911148642213044,25.66
1.0,0.02139770330411355,-0.12461396143077327,0.9941188563997405,0.5999191106172368,-1.2940181963306416,0.001129867182511792,25.66
1.0,0.022096933750173974,-0.12432025809043742,0.9938294599770584,0.5762982829344926,-1.4900502289167985,-0.042584887898474935,25.66
1.0,0.022829411797011166,-0.12400623838018425,0.9935287018142603,0.5538207217292858,-1.6625175336104965,-0.08205294212207769,25.66
1.0,0.023582782657904536,-0.12367196287986512,0.9932092168914853,0.5329618436425999,-1.8068556512393124,-0.11722078815354153,25.61
1.0,0.024343715989467895,-0.12331886281960458,0.9928671993998726,0.514681412857233,-1.9199824308373112,-0.1481321314648466,25.71
1.0,0.025098097153216425,-0.12295049231138191,0.9925031700851245,0.5003653592252789,-2.0004283814810404,-0.17505835812202197,25.61
1.0,0.0258313412072025,-0.12257230468574815,0.9921208608847973,0.49162534348055226,-2.0482018303094613,-0.19851932433250383,25.61
1.0,0.026530471951632627,-0.12219033644882715,0.9917261247796512,0.49001375010158726,-2.0644151562156696,-0.2192133334951076,25.61
1.0,0.027186589427692583,-0.12180986269319671,0.9913267069105771,0.4967403988260424,-2.050715511787537,-0.2378849437541504,25.8
1.0,0.027795157414306788,-0.12143546655283458,0.9909328117710552,0.5124726325667759,-2.00873810307067,-0.2551555979433786,25.71
1.0,0.02835407058164591,-0.12107221256359801,0.990557717603446,0.5372688570974226,-1.9398574690286237,-0.271383229208732,25.61
1.0,0.028861707150572742,-0.12072609658915551,0.9902174287322818,0.5706525222416707,-1.8452745086661304,-0.28661503129143345,25.71
1.0,0.02931589632195776,-0.12040364103228832,0.9899295842262567,0.6117635580180519,-1.7262592102349965,-0.30063345917442935,25.61
1.0,0.029713091813864216,-0.12011168208834792,0.9897120143684983,0.6594541122261204,-1.5844965978235366,-0.3130327029508236,25.66
1.0,0.030048793109828192,-0.11985692620309088,0.9895812385362218,0.7122676472825609,-1.4225527709806682,-0.32327749000307554,25.66
1.0,0.03031985163620492,-0.11964531135084648,0.9895513898875603,0.7684238900188199,-1.2442094823817047,-0.3307750503905448,25.66
1.0,0.030525770502510673,-0.11948216050536234,0.9896333061478934,0.8259186483690447,-1.0544070708313524,-0.3349912248040639,25.66
1.0,0.030667729617949616,-0.11937211271533762,0.989833153985762,0.8826657627841601,-0.8589750194924561,-0.33558786642568594,25.66
1.0,0.030747509943063304,-0.11931781597740464,0.9901507753622936,0.9365981658449046,-0.6643893785067194,-0.33253188033739844,25.66
1.0,0.03076695668652997,-0.11931847793547869,0.9905787995744341,0.9857337630844046,-0.4774062031922711,-0.3260997018806181,25.71
1.0,0.030727711258536936,-0.1193691682519589,0.991103242405283,1.0282126063349641,-0.3044488600826958,-0.31676048317936545,25.71
1.0,0.03063214632356844,-0.1194615459725812,0.9917052100187707,1.0623249955947138,-0.15093214932543755,-0.3050290695871104,25.71
1.0,0.03048477919268614,-0.11958604904785959,0.9923627765873558,1.0865700547056694,-0.02071355984229537,-0.2913846721854749,25.71
1.0,0.030292350943539107,-0.1197336211423434,0.99305258463486,1.0997214807895308,0.08417317159237524,-0.27629636748134684,25.71
1.0,0.03006330012065043,-0.11989592179259931,0.9937511193731312,1.1008400255214592,0.16338939442705872,-0.260303065896739,25.66
1.0,0.029807812744433046,-0.12006486676844522,0.9944360631500598,1.0892373481033264,0.21783422898373178,-0.24404178980251964,25.66
1.0,0.029537614688448406,-0.12023219861007435,0.9950882269577751,1.064456771923104,0.24899254436760998,-0.2282087126420993,25.75
1.0,0.029265527852950616,-0.12038926309027326,0.9956927937669305,1.0263552991044895,0.25829487249540684,-0.21349427140961097,25.57
1.0,0.02900561578024277,-0.12052712719280266,0.9962388617386196,0.9753056265369333,0.2468160337019943,-0.200488074390816,25.66
1.0,0.028773144779996426,-0.12063758601559592,0.9967186656411616,0.9123621419535218,0.215419269899919,-0.18957331497254995,25.66
1.0,0.02858367608863665,-0.1207148064368097,0.9971270267687795,0.8392049371356272,0.16505191987897466,-0.18090596973410825,25.66
1.0,0.028451310486346793,-0.12075600454556862,0.9974601259577502,0.7578880623575573,0.09689611531421141,-0.1745534104585582,25.66
1.0,0.028385825864773583,-0.12076114148240473,0.9977142267924914,0.6705967927622983,0.01245430242207447,-0.1707086593086864,25.66
1.0,0.028389676964576803,-0.1207327829097901,0.9978860058213509,0.5795401824945636,-0.08623196584758076,-0.16974687930744975,25.61
1.0,0.02845708411835586,-0.12067555114777115,0.9979740319943557,0.48691802321137057,-0.19634177369753986,-0.17200792239708446,25.71
1.0,0.02857625020007757,-0.1205947677444055,0.9979792733856392,0.3948781598929357,-0.3142275498758023,-0.17747968718039883,25.61
1.0,0.02873350698706563,-0.12049545544498422,0.9979044035145971,0.3054234947089184,-0.43553090084232327,-0.18565103385212503,25.66
