timeDelta,accelX,accelY,accelZ,gyroX,gyroY,gyroZ,temperature
1.0,-0.0826416015625,0.150634765625,0.98101806640625,0.08396946564885496,0.22137404580152673,-0.16030534351145037,23.68
1.0,-0.0775146484375,0.156494140625,0.97760009765625,0.17557251908396945,0.0,-0.20610687022900764,23.78
1.0,-0.0814208984375,0.145263671875,0.97686767578125,0.17557251908396945,0.0916030534351145,-0.13740458015267176,23.73
1.0,-0.0858154296875,0.1484375,0.98077392578125,0.022900763358778626,0.19083969465648856,-0.03816793893129771,23.68
1.0,-0.0814208984375,0.155029296875,0.98663330078125,0.19083969465648856,0.1297709923664122,-0.183206106870229,23.68
1.0,-0.0823974609375,0.152587890625,0.98199462890625,0.1450381679389313,0.31297709923664124,0.08396946564885496,23.73
1.0,-0.0882568359375,0.150146484375,0.97637939453125,0.2900763358778626,0.2748091603053435,-0.07633587786259542,23.73
1.0,-0.0823974609375,0.1474609375,0.98077392578125,0.25190839694656486,0.4198473282442748,-0.1984732824427481,23.68
1.0,-0.0841064453125,0.1455078125,0.98052978515625,0.26717557251908397,0.3511450381679389,-0.022900763358778626,23.78
1.0,-0.0794677734375,0.148681640625,0.98199462890625,0.0916030534351145,0.33587786259541985,-0.1450381679389313,23.64
1.0,-0.0787353515625,0.154296875,0.98687744140625,0.11450381679389313,0.32061068702290074,-0.04580152671755725,23.73
1.0,-0.0858154296875,0.147216796875,0.98321533203125,0.15267175572519084,0.32061068702290074,-0.13740458015267176,23.68
1.0,-0.0863037109375,0.14404296875,0.98223876953125,0.22137404580152673,0.10687022900763359,0.061068702290076333,23.68
1.0,-0.0797119140625,0.15087890625,0.98614501953125,0.16793893129770993,0.25190839694656486,0.007633587786259542,23.73
1.0,-0.0828857421875,0.1552734375,0.98516845703125,0.12213740458015267,0.2366412213740458,-0.12213740458015267,23.73
1.0,-0.0792236328125,0.145751953125,0.98419189453125,0.1450381679389313,0.1984732824427481,-0.08396946564885496,23.73
1.0,-0.0865478515625,0.152587890625,0.98297119140625,0.2595419847328244,0.007633587786259542,-0.03816793893129771,23.68
1.0,-0.0806884765625,0.15234375,0.98126220703125,0.32061068702290074,0.0916030534351145,0.11450381679389313,23.68
1.0,-0.0858154296875,0.157958984375,0.98614501953125,0.09923664122137404,0.26717557251908397,-0.03816793893129771,23.73
1.0,-0.0870361328125,0.15771484375,0.98492431640625,0.1450381679389313,0.09923664122137404,0.10687022900763359,23.68
1.0,-0.0833740234375,0.1494140625,0.97491455078125,0.32061068702290074,0.12213740458015267,-0.06870229007633588,23.78
1.0,-0.0877685546875,0.14794921875,0.98907470703125,0.2366412213740458,0.1450381679389313,-0.030534351145038167,23.68
1.0,-0.0865478515625,0.14892578125,0.98883056640625,0.1297709923664122,0.2824427480916031,0.1297709923664122,23.73
1.0,-0.0814208984375,0.148193359375,0.98419189453125,-0.12213740458015267,0.21374045801526717,-0.21374045801526717,23.64
1.0,-0.0875244140625,0.156494140625,0.98541259765625,0.04580152671755725,0.32061068702290074,-0.12213740458015267,23.68
1.0,-0.0833740234375,0.148193359375,0.98883056640625,0.16030534351145037,0.2366412213740458,0.015267175572519083,23.78
1.0,-0.0845947265625,0.146484375,0.98516845703125,0.007633587786259542,0.31297709923664124,-0.1297709923664122,23.73
1.0,-0.0875244140625,0.153564453125,0.97955322265625,0.20610687022900764,0.12213740458015267,-0.0916030534351145,23.64
1.0,-0.0833740234375,0.1455078125,0.98394775390625,0.030534351145038167,0.1984732824427481,-0.05343511450381679,23.68
1.0,-0.0784912109375,0.148193359375,0.98028564453125,0.061068702290076333,0.33587786259541985,-0.06870229007633588,23.68
1.0,-0.0875244140625,0.151611328125,0.97589111328125,0.10687022900763359,-0.16030534351145037,-0.05343511450381679,23.73
1.0,-0.0838623046875,0.146728515625,0.98297119140625,0.3511450381679389,0.32061068702290074,-0.030534351145038167,23.73
1.0,-0.0836181640625,0.15234375,0.97760009765625,0.3053435114503817,0.3893129770992366,0.1297709923664122,23.68
1.0,-0.0855712890625,0.15478515625,0.98028564453125,0.1450381679389313,0.030534351145038167,-0.061068702290076333,23.68
1.0,-0.0845947265625,0.152099609375,0.97833251953125,0.2824427480916031,0.03816793893129771,-0.07633587786259542,23.64
1.0,-0.0855712890625,0.152099609375,0.97979736328125,0.2900763358778626,0.022900763358778626,-0.07633587786259542,23.68
1.0,-0.0838623046875,0.147705078125,0.97930908203125,0.07633587786259542,0.06870229007633588,0.061068702290076333,23.78
1.0,-0.0809326171875,0.153076171875,0.99029541015625,0.07633587786259542,0.20610687022900764,0.10687022900763359,23.78
1.0,-0.0765380859375,0.146484375,0.98199462890625,0.1450381679389313,0.2366412213740458,0.03816793893129771,23.64
1.0,-0.0841064453125,0.15087890625,0.99224853515625,0.25190839694656486,0.16030534351145037,-0.030534351145038167,23.68
1.0,-0.0802001953125,0.148193359375,0.98468017578125,0.03816793893129771,0.04580152671755725,-0.13740458015267176,23.68
1.0,-0.0819091796875,0.155029296875,0.98175048828125,0.0916030534351145,0.183206106870229,-0.12213740458015267,23.68
1.0,-0.0799560546875,0.1416015625,0.98565673828125,0.05343511450381679,0.3893129770992366,-0.04580152671755725,23.64
1.0,-0.0809326171875,0.152587890625,0.98883056640625,0.16030534351145037,0.015267175572519083,-0.061068702290076333,23.64
1.0,-0.0762939453125,0.147216796875,0.97442626953125,0.16793893129770993,0.22137404580152673,0.06870229007633588,23.68
1.0,-0.0806884765625,0.14697265625,0.98419189453125,0.1297709923664122,0.1984732824427481,-0.030534351145038167,23.73
1.0,-0.0789794921875,0.1494140625,0.98394775390625,0.05343511450381679,0.183206106870229,-0.04580152671755725,23.73
1.0,-0.0819091796875,0.14892578125,0.98394775390625,0.04580152671755725,0.22900763358778625,-0.13740458015267176,23.78
1.0,-0.0838623046875,0.1572265625,0.98248291015625,0.13740458015267176,-0.007633587786259542,-0.15267175572519084,23.68
1.0,-0.0811767578125,0.148193359375,0.97198486328125,0.08396946564885496,0.1450381679389313,0.06870229007633588,23.64
1.0,-0.0797119140625,0.151123046875,0.98101806640625,0.16030534351145037,0.35877862595419846,-0.09923664122137404,23.64
1.0,-0.0850830078125,0.14697265625,0.98809814453125,0.1450381679389313,0.183206106870229,-0.13740458015267176,23.73
1.0,-0.0848388671875,0.151123046875,0.98126220703125,0.16793893129770993,0.1450381679389313,0.0916030534351145,23.59
1.0,-0.0802001953125,0.14892578125,0.98077392578125,0.183206106870229,0.1450381679389313,-0.030534351145038167,23.68
1.0,-0.0816650390625,0.15234375,0.98272705078125,0.183206106870229,0.13740458015267176,-0.03816793893129771,23.82
1.0,-0.0811767578125,0.15478515625,0.99102783203125,0.20610687022900764,0.4122137404580153,0.09923664122137404,23.73
1.0,-0.0816650390625,0.151611328125,0.98150634765625,0.2900763358778626,0.2748091603053435,-0.2900763358778626,23.78
1.0,-0.0833740234375,0.154296875,0.97564697265625,0.061068702290076333,0.16793893129770993,0.015267175572519083,23.68
1.0,-0.0816650390625,0.14892578125,0.98687744140625,0.08396946564885496,0.3969465648854962,-0.1450381679389313,23.73
1.0,-0.0899658203125,0.149658203125,0.99273681640625,0.1450381679389313,0.2900763358778626,-0.2366412213740458,23.64
1.0,-0.0882568359375,0.14892578125,0.98907470703125,0.16030534351145037,0.1297709923664122,0.183206106870229,23.68
1.0,-0.0858154296875,0.1474609375,0.98712158203125,0.2366412213740458,0.3282442748091603,-0.05343511450381679,23.59
1.0,-0.0841064453125,0.15234375,0.98712158203125,-0.030534351145038167,0.07633587786259542,-0.030534351145038167,23.64
1.0,-0.0792236328125,0.153076171875,0.98956298828125,0.22900763358778625,0.06870229007633588,-0.12213740458015267,23.64
1.0,-0.0799560546875,0.1513671875,0.98760986328125,0.16030534351145037,0.17557251908396945,-0.030534351145038167,23.59
1.0,-0.0826416015625,0.152099609375,0.98468017578125,0.15267175572519084,0.35877862595419846,-0.030534351145038167,23.68
1.0,-0.0872802734375,0.147705078125,0.99493408203125,-0.015267175572519083,0.11450381679389313,-0.15267175572519084,23.73
1.0,-0.0933837890625,0.154296875,0.97882080078125,0.17557251908396945,0.0,0.2366412213740458,23.64
1.0,-0.0858154296875,0.15673828125,0.98492431640625,-0.03816793893129771,0.183206106870229,0.1450381679389313,23.68
1.0,-0.0821533203125,0.143310546875,0.98492431640625,0.26717557251908397,0.549618320610687,-0.24427480916030533,23.68
1.0,-0.0770263671875,0.149658203125,0.98614501953125,0.1297709923664122,0.3282442748091603,-0.17557251908396945,23.73
1.0,-0.0753173828125,0.15283203125,0.98590087890625,0.16793893129770993,-0.11450381679389313,-0.11450381679389313,23.64
1.0,-0.0858154296875,0.153564453125,0.98419189453125,0.16793893129770993,0.16793893129770993,-0.11450381679389313,23.64
1.0,-0.0892333984375,0.150390625,0.98272705078125,0.10687022900763359,0.44274809160305345,0.07633587786259542,23.68
1.0,-0.0880126953125,0.149658203125,0.99005126953125,0.15267175572519084,0.4580152671755725,-0.030534351145038167,23.78
1.0,-0.0799560546875,0.1484375,0.99029541015625,0.03816793893129771,0.2748091603053435,-0.10687022900763359,23.73
1.0,-0.0841064453125,0.1552734375,0.98638916015625,0.03816793893129771,0.2595419847328244,-0.0916030534351145,23.73
1.0,-0.0797119140625,0.14892578125,0.97784423828125,0.26717557251908397,0.4351145038167939,0.061068702290076333,23.59
1.0,-0.0814208984375,0.150634765625,0.98443603515625,0.33587786259541985,0.1450381679389313,0.10687022900763359,23.68
1.0,-0.0772705078125,0.152099609375,0.98956298828125,0.12213740458015267,0.3282442748091603,0.0916030534351145,23.73
1.0,-0.0816650390625,0.1484375,0.98150634765625,0.31297709923664124,0.10687022900763359,0.015267175572519083,23.78
1.0,-0.0865478515625,0.146484375,0.98663330078125,0.21374045801526717,0.04580152671755725,0.0916030534351145,23.68
1.0,-0.0836181640625,0.1513671875,0.98419189453125,0.1297709923664122,0.03816793893129771,0.12213740458015267,23.68
1.0,-0.0848388671875,0.15625,0.99029541015625,0.31297709923664124,0.19083969465648856,-0.06870229007633588,23.73
1.0,-0.0767822265625,0.156982421875,0.98516845703125,0.2366412213740458,0.12213740458015267,-0.22900763358778625,23.68
1.0,-0.0762939453125,0.154541015625,0.98663330078125,0.20610687022900764,0.10687022900763359,0.1297709923664122,23.78
1.0,-0.0848388671875,0.148193359375,0.97979736328125,0.16793893129770993,0.15267175572519084,-0.09923664122137404,23.68
1.0,-0.0850830078125,0.148193359375,0.97906494140625,0.03816793893129771,0.10687022900763359,-0.12213740458015267,23.73
1.0,-0.0797119140625,0.151123046875,0.98199462890625,0.22137404580152673,0.15267175572519084,-0.16030534351145037,23.73
1.0,-0.0819091796875,0.151611328125,0.98907470703125,0.11450381679389313,0.21374045801526717,-0.11450381679389313,23.68
1.0,-0.0806884765625,0.15869140625,0.98394775390625,0.22137404580152673,0.15267175572519084,-0.09923664122137404,23.78
1.0,-0.0797119140625,0.149658203125,0.98883056640625,0.12213740458015267,0.19083969465648856,-0.04580152671755725,23.68
1.0,-0.0814208984375,0.150146484375,0.98614501953125,0.16030534351145037,0.22137404580152673,-0.03816793893129771,23.64
1.0,-0.0814208984375,0.152587890625,0.98150634765625,0.17557251908396945,0.21374045801526717,0.03816793893129771,23.82
1.0,-0.0792236328125,0.146728515625,0.98687744140625,0.19083969465648856,0.22900763358778625,-0.03816793893129771,23.68
1.0,-0.0814208984375,0.15185546875,0.97711181640625,0.25190839694656486,-0.09923664122137404,-0.17557251908396945,23.78
1.0,-0.0816650390625,0.151123046875,0.98541259765625,0.3053435114503817,0.11450381679389313,-0.11450381679389313,23.73
1.0,-0.0789794921875,0.1513671875,0.98370361328125,0.10687022900763359,0.2900763358778626,-0.030534351145038167,23.73
1.0,-0.0816650390625,0.156005859375,0.99273681640625,0.06870229007633588,0.08396946564885496,-0.09923664122137404,23.78
1.0,-0.0860595703125,0.15234375,0.98004150390625,0.07633587786259542,0.17557251908396945,-0.11450381679389313,23.68
1.0,-0.0787353515625,0.15087890625,0.98248291015625,0.03816793893129771,-0.10687022900763359,-0.022900763358778626,23.78
1.0,-0.0809326171875,0.154052734375,0.98590087890625,0.07633587786259542,0.03816793893129771,-0.2366412213740458,23.64
1.0,-0.0889892578125,0.150634765625,0.98956298828125,0.05343511450381679,0.12213740458015267,-0.015267175572519083,23.64
1.0,-0.0863037109375,0.149658203125,0.98272705078125,0.16030534351145037,0.2748091603053435,-0.061068702290076333,23.68
1.0,-0.0799560546875,0.158447265625,0.98663330078125,0.45038167938931295,0.11450381679389313,0.030534351145038167,23.68
1.0,-0.0887451171875,0.14697265625,0.98883056640625,0.22137404580152673,0.2900763358778626,-0.12213740458015267,23.73
1.0,-0.0809326171875,0.14990234375,0.97955322265625,0.1297709923664122,-0.007633587786259542,-0.09923664122137404,23.78
1.0,-0.0826416015625,0.146728515625,0.97613525390625,0.20610687022900764,0.40458015267175573,-0.183206106870229,23.78
1.0,-0.0765380859375,0.15625,0.98004150390625,0.09923664122137404,0.3053435114503817,-0.08396946564885496,23.78
1.0,-0.0823974609375,0.155517578125,0.97784423828125,0.15267175572519084,0.3816793893129771,-0.08396946564885496,23.73
1.0,-0.0780029296875,0.154052734375,0.98150634765625,0.05343511450381679,0.04580152671755725,0.07633587786259542,23.73
1.0,-0.0885009765625,0.150634765625,0.97808837890625,0.26717557251908397,0.04580152671755725,0.030534351145038167,23.68
1.0,-0.0838623046875,0.1494140625,0.97833251953125,0.07633587786259542,0.3053435114503817,-0.07633587786259542,23.78
1.0,-0.0799560546875,0.150634765625,0.98614501953125,0.15267175572519084,0.05343511450381679,-0.0916030534351145,23.64
1.0,-0.0806884765625,0.1513671875,0.97857666015625,0.09923664122137404,0.1984732824427481,-0.1450381679389313,23.64
1.0,-0.0799560546875,0.14892578125,0.98712158203125,0.19083969465648856,0.22137404580152673,0.007633587786259542,23.68
1.0,-0.0836181640625,0.152587890625,0.97711181640625,0.29770992366412213,0.25190839694656486,-0.030534351145038167,23.78
1.0,-0.0836181640625,0.154296875,0.98736572265625,0.1450381679389313,0.08396946564885496,-0.08396946564885496,23.73
1.0,-0.0809326171875,0.15185546875,0.99102783203125,0.183206106870229,0.2366412213740458,-0.04580152671755725,23.73
1.0,-0.0804443359375,0.146240234375,0.98126220703125,0.33587786259541985,0.16793893129770993,0.16793893129770993,23.78
1.0,-0.0819091796875,0.150146484375,0.98004150390625,0.1297709923664122,0.08396946564885496,-0.06870229007633588,23.68
1.0,-0.0838623046875,0.151611328125,0.97711181640625,0.0916030534351145,-0.03816793893129771,0.0916030534351145,23.73
1.0,-0.0819091796875,0.151123046875,0.99249267578125,0.1297709923664122,0.11450381679389313,-0.030534351145038167,23.64
1.0,-0.0826416015625,0.1455078125,0.98687744140625,0.15267175572519084,0.03816793893129771,0.0916030534351145,23.68
1.0,-0.0775146484375,0.15283203125,0.98931884765625,0.24427480916030533,0.07633587786259542,-0.06870229007633588,23.68
1.0,-0.0858154296875,0.146240234375,0.97442626953125,0.04580152671755725,-0.022900763358778626,0.06870229007633588,23.73
1.0,-0.0770263671875,0.154052734375,0.99053955078125,0.22137404580152673,0.2900763358778626,-0.1297709923664122,23.64
1.0,-0.0794677734375,0.154052734375,0.98541259765625,0.11450381679389313,0.4122137404580153,-0.022900763358778626,23.68
1.0,-0.0863037109375,0.149169921875,0.97589111328125,0.1450381679389313,0.2366412213740458,0.09923664122137404,23.68
1.0,-0.0718994140625,0.14697265625,0.98175048828125,0.22137404580152673,0.12213740458015267,-0.05343511450381679,23.64
1.0,-0.0806884765625,0.152099609375,0.99127197265625,0.22137404580152673,0.25190839694656486,0.06870229007633588,23.73
1.0,-0.0806884765625,0.149169921875,0.98175048828125,0.2366412213740458,0.3282442748091603,0.061068702290076333,23.78
1.0,-0.0770263671875,0.161376953125,0.98101806640625,0.0,0.2824427480916031,-0.0916030534351145,23.68
1.0,-0.0841064453125,0.15478515625,0.97955322265625,-0.04580152671755725,-0.022900763358778626,0.10687022900763359,23.73
1.0,-0.0811767578125,0.154296875,0.97930908203125,0.1984732824427481,0.40458015267175573,0.06870229007633588,23.73
1.0,-0.0782470703125,0.153076171875,0.98272705078125,0.2595419847328244,0.19083969465648856,0.03816793893129771,23.68
1.0,-0.0814208984375,0.15234375,0.97930908203125,0.183206106870229,0.1984732824427481,-0.09923664122137404,23.73
1.0,-0.0726318359375,0.15380859375,0.98590087890625,-0.022900763358778626,0.19083969465648856,-0.10687022900763359,23.73
1.0,-0.0782470703125,0.16064453125,0.97784423828125,0.16793893129770993,0.3969465648854962,-0.04580152671755725,23.73
1.0,-0.0863037109375,0.152587890625,0.98590087890625,0.1297709923664122,0.31297709923664124,-0.15267175572519084,23.68
1.0,-0.0821533203125,0.143798828125,0.98052978515625,0.15267175572519084,0.19083969465648856,-0.19083969465648856,23.78
1.0,-0.0814208984375,0.14794921875,0.98760986328125,0.183206106870229,0.0916030534351145,-0.07633587786259542,23.73
1.0,-0.0850830078125,0.15478515625,0.98126220703125,0.11450381679389313,0.2595419847328244,-0.022900763358778626,23.78
1.0,-0.0762939453125,0.150390625,0.98687744140625,0.06870229007633588,0.2595419847328244,-0.16030534351145037,23.68
1.0,-0.0745849609375,0.14453125,0.99176025390625,0.25190839694656486,0.19083969465648856,-0.03816793893129771,23.68
1.0,-0.0836181640625,0.1474609375,0.98223876953125,0.17557251908396945,0.16793893129770993,-0.07633587786259542,23.64
1.0,-0.0782470703125,0.1484375,0.98101806640625,0.030534351145038167,0.183206106870229,0.015267175572519083,23.73
1.0,-0.0826416015625,0.14453125,0.98687744140625,0.07633587786259542,0.12213740458015267,-0.10687022900763359,23.68
1.0,-0.0863037109375,0.14404296875,0.98077392578125,0.07633587786259542,0.22137404580152673,0.09923664122137404,23.68
1.0,-0.0828857421875,0.15087890625,0.98394775390625,0.15267175572519084,0.16030534351145037,-0.06870229007633588,23.73
1.0,-0.0775146484375,0.147705078125,0.97564697265625,-0.015267175572519083,0.0916030534351145,0.08396946564885496,23.73
1.0,-0.0789794921875,0.1494140625,0.98736572265625,0.16793893129770993,0.07633587786259542,0.030534351145038167,23.73
1.0,-0.0833740234375,0.15087890625,0.98370361328125,0.2824427480916031,0.10687022900763359,-0.022900763358778626,23.78
1.0,-0.0799560546875,0.15576171875,0.99224853515625,0.0,0.0916030534351145,-0.09923664122137404,23.73
1.0,-0.0762939453125,0.1474609375,0.98516845703125,0.12213740458015267,0.09923664122137404,0.04580152671755725,23.64
1.0,-0.0850830078125,0.150390625,0.98956298828125,0.2748091603053435,0.21374045801526717,0.061068702290076333,23.68
1.0,-0.0804443359375,0.146240234375,0.97711181640625,0.10687022900763359,0.22137404580152673,-0.19083969465648856,23.68
1.0,-0.0863037109375,0.152099609375,0.98541259765625,0.06870229007633588,0.3053435114503817,0.015267175572519083,23.73
1.0,-0.0802001953125,0.157958984375,0.99102783203125,0.030534351145038167,0.29770992366412213,0.061068702290076333,23.68
1.0,-0.0860595703125,0.153564453125,0.98297119140625,0.16030534351145037,0.20610687022900764,0.007633587786259542,23.78
1.0,-0.0841064453125,0.152099609375,0.98565673828125,0.29770992366412213,0.2595419847328244,-0.10687022900763359,23.59
1.0,-0.0882568359375,0.15087890625,0.97808837890625,0.05343511450381679,0.12213740458015267,0.061068702290076333,23.73
1.0,-0.0885009765625,0.1513671875,0.98443603515625,0.10687022900763359,0.42748091603053434,-0.10687022900763359,23.82
1.0,-0.0762939453125,0.15478515625,0.98956298828125,0.03816793893129771,0.366412213740458,-0.2900763358778626,23.68
1.0,-0.0828857421875,0.152587890625,0.98101806640625,-0.07633587786259542,0.15267175572519084,0.015267175572519083,23.78
1.0,-0.0828857421875,0.15380859375,0.98492431640625,0.2900763358778626,0.10687022900763359,0.030534351145038167,23.73
1.0,-0.0804443359375,0.14501953125,0.98834228515625,0.1297709923664122,-0.08396946564885496,0.0916030534351145,23.73
1.0,-0.0855712890625,0.15234375,0.98297119140625,0.08396946564885496,0.22137404580152673,-0.007633587786259542,23.68
1.0,-0.0811767578125,0.151123046875,0.98468017578125,0.2595419847328244,0.3053435114503817,-0.11450381679389313,23.68
1.0,-0.0836181640625,0.148681640625,0.98272705078125,0.10687022900763359,0.21374045801526717,0.030534351145038167,23.73
1.0,-0.0823974609375,0.143798828125,0.98175048828125,0.2824427480916031,0.0916030534351145,0.03816793893129771,23.73
1.0,-0.0853271484375,0.149658203125,0.97808837890625,0.22137404580152673,0.20610687022900764,-0.04580152671755725,23.78
1.0,-0.0770263671875,0.14453125,0.98199462890625,0.15267175572519084,0.17557251908396945,-0.030534351145038167,23.68
1.0,-0.0838623046875,0.155517578125,0.98052978515625,0.09923664122137404,0.183206106870229,-0.022900763358778626,23.73
1.0,-0.0858154296875,0.14990234375,0.98394775390625,0.2366412213740458,0.19083969465648856,0.015267175572519083,23.68
1.0,-0.0877685546875,0.15478515625,0.97833251953125,-0.03816793893129771,0.3511450381679389,0.1984732824427481,23.68
1.0,-0.0826416015625,0.152099609375,0.98394775390625,0.04580152671755725,0.24427480916030533,-0.007633587786259542,23.78
1.0,-0.0775146484375,0.148681640625,0.98150634765625,0.12213740458015267,0.22900763358778625,-0.11450381679389313,23.64
1.0,-0.0775146484375,0.153564453125,0.98345947265625,0.15267175572519084,0.0,-0.15267175572519084,23.73
1.0,-0.0755615234375,0.147216796875,0.99127197265625,0.20610687022900764,0.2824427480916031,-0.0916030534351145,23.78
1.0,-0.0814208984375,0.149658203125,0.97930908203125,0.2900763358778626,0.3969465648854962,-0.10687022900763359,23.68
1.0,-0.0811767578125,0.15478515625,0.97222900390625,0.09923664122137404,0.11450381679389313,-0.0916030534351145,23.73
1.0,-0.0831298828125,0.148681640625,0.99029541015625,0.2595419847328244,0.3282442748091603,-0.1450381679389313,23.64
1.0,-0.0870361328125,0.1552734375,0.99029541015625,-0.022900763358778626,0.16793893129770993,-0.061068702290076333,23.68
1.0,-0.0799560546875,0.1494140625,0.98492431640625,-0.09923664122137404,0.13740458015267176,-0.08396946564885496,23.68
1.0,-0.0789794921875,0.15283203125,0.98712158203125,0.030534351145038167,0.2748091603053435,-0.04580152671755725,23.68
1.0,-0.0853271484375,0.1552734375,0.98199462890625,0.15267175572519084,0.1450381679389313,0.06870229007633588,23.82
1.0,-0.0836181640625,0.145263671875,0.98101806640625,0.21374045801526717,0.2900763358778626,0.16030534351145037,23.78
1.0,-0.0782470703125,0.147705078125,0.97467041015625,0.1297709923664122,0.1297709923664122,-0.030534351145038167,23.78
1.0,-0.0875244140625,0.15625,0.98883056640625,0.11450381679389313,0.2824427480916031,0.09923664122137404,23.73
1.0,-0.0797119140625,0.15478515625,0.98297119140625,0.16793893129770993,0.061068702290076333,0.030534351145038167,23.73
1.0,-0.0804443359375,0.1513671875,0.98907470703125,0.13740458015267176,-0.07633587786259542,0.030534351145038167,23.68
1.0,-0.0899658203125,0.150390625,0.98565673828125,0.29770992366412213,0.12213740458015267,0.05343511450381679,23.68
1.0,-0.0828857421875,0.15087890625,0.98419189453125,0.10687022900763359,0.42748091603053434,0.061068702290076333,23.73
1.0,-0.0821533203125,0.152587890625,0.99078369140625,0.183206106870229,0.08396946564885496,0.030534351145038167,23.73
1.0,-0.0765380859375,0.151123046875,0.98248291015625,0.06870229007633588,-0.015267175572519083,-0.03816793893129771,23.78
1.0,-0.0838623046875,0.149169921875,0.98126220703125,0.10687022900763359,0.17557251908396945,0.07633587786259542,23.68
1.0,-0.0850830078125,0.15234375,0.97906494140625,0.10687022900763359,0.1297709923664122,0.007633587786259542,23.82
1.0,-0.0848388671875,0.14990234375,0.97393798828125,0.1297709923664122,0.26717557251908397,-0.08396946564885496,23.73
1.0,-0.0823974609375,0.1552734375,0.98834228515625,0.17557251908396945,0.05343511450381679,-0.08396946564885496,23.68
1.0,-0.0806884765625,0.154296875,0.98443603515625,0.12213740458015267,0.19083969465648856,0.0,23.68
1.0,-0.0843505859375,0.15478515625,0.98150634765625,0.22137404580152673,0.05343511450381679,-0.03816793893129771,23.73
1.0,-0.0853271484375,0.151611328125,0.98052978515625,0.3435114503816794,0.20610687022900764,-0.22900763358778625,23.78
1.0,-0.0816650390625,0.1513671875,0.98419189453125,0.22900763358778625,-0.03816793893129771,-0.061068702290076333,23.68
1.0,-0.0877685546875,0.154052734375,0.97760009765625,0.13740458015267176,0.16030534351145037,0.16793893129770993,23.78
1.0,-0.0792236328125,0.154541015625,0.97906494140625,0.12213740458015267,0.3053435114503817,-0.20610687022900764,23.73
1.0,-0.0816650390625,0.149658203125,0.98590087890625,0.09923664122137404,0.11450381679389313,0.06870229007633588,23.64
1.0,-0.0799560546875,0.15185546875,0.98931884765625,0.22900763358778625,0.061068702290076333,0.061068702290076333,23.78
1.0,-0.0838623046875,0.147705078125,0.98077392578125,0.24427480916030533,0.0916030534351145,-0.04580152671755725,23.73
1.0,-0.0853271484375,0.143798828125,0.98468017578125,0.05343511450381679,0.1984732824427481,-0.2366412213740458,23.73
1.0,-0.0850830078125,0.149169921875,0.98052978515625,0.22137404580152673,0.09923664122137404,0.007633587786259542,23.68
1.0,-0.0882568359375,0.150634765625,0.98565673828125,-0.061068702290076333,0.183206106870229,0.11450381679389313,23.68
1.0,-0.0755615234375,0.14990234375,0.97930908203125,0.1984732824427481,0.05343511450381679,0.030534351145038167,23.64
1.0,-0.0841064453125,0.141845703125,0.99005126953125,-0.061068702290076333,0.183206106870229,-0.007633587786259542,23.73
1.0,-0.0823974609375,0.1513671875,0.99200439453125,0.2366412213740458,0.22900763358778625,-0.022900763358778626,23.68
1.0,-0.0765380859375,0.1455078125,0.97882080078125,0.19083969465648856,0.11450381679389313,0.015267175572519083,23.68
1.0,-0.0816650390625,0.149658203125,0.98419189453125,0.03816793893129771,0.21374045801526717,-0.015267175572519083,23.64
1.0,-0.0897216796875,0.1513671875,0.98052978515625,0.29770992366412213,0.3893129770992366,-0.15267175572519084,23.73
1.0,-0.0858154296875,0.15087890625,0.98785400390625,0.03816793893129771,-0.0916030534351145,-0.030534351145038167,23.68
1.0,-0.0858154296875,0.150146484375,0.99005126953125,0.16030534351145037,0.015267175572519083,0.007633587786259542,23.68
1.0,-0.0816650390625,0.15380859375,0.98223876953125,-0.06870229007633588,-0.0916030534351145,-0.015267175572519083,23.64
1.0,-0.0804443359375,0.146728515625,0.98370361328125,0.08396946564885496,0.061068702290076333,0.06870229007633588,23.73
1.0,-0.0833740234375,0.15380859375,0.98297119140625,0.10687022900763359,0.030534351145038167,-0.007633587786259542,23.78
1.0,-0.0809326171875,0.158447265625,0.98492431640625,0.15267175572519084,0.022900763358778626,-0.183206106870229,23.73
1.0,-0.0831298828125,0.150146484375,0.99639892578125,0.12213740458015267,0.10687022900763359,-0.16793893129770993,23.64
1.0,-0.0860595703125,0.15478515625,0.98712158203125,0.12213740458015267,0.16793893129770993,-0.29770992366412213,23.78
1.0,-0.0853271484375,0.1533203125,0.98101806640625,0.31297709923664124,0.13740458015267176,-0.13740458015267176,23.68
1.0,-0.0792236328125,0.1484375,0.98052978515625,0.2824427480916031,0.26717557251908397,0.030534351145038167,23.68
1.0,-0.0882568359375,0.150146484375,0.97808837890625,0.15267175572519084,0.20610687022900764,-0.1297709923664122,23.73
1.0,-0.0821533203125,0.148681640625,0.97979736328125,0.33587786259541985,0.3816793893129771,-0.007633587786259542,23.78
1.0,-0.0792236328125,0.14990234375,0.98614501953125,0.17557251908396945,0.16030534351145037,-0.1450381679389313,23.68
1.0,-0.0897216796875,0.15283203125,0.97515869140625,0.31297709923664124,0.3893129770992366,-0.007633587786259542,23.68
1.0,-0.0828857421875,0.146728515625,0.97906494140625,0.1297709923664122,0.32061068702290074,-0.007633587786259542,23.73
1.0,-0.0853271484375,0.146240234375,0.97930908203125,0.33587786259541985,0.42748091603053434,-0.16793893129770993,23.68
1.0,-0.0863037109375,0.148193359375,0.98394775390625,0.1984732824427481,0.03816793893129771,-0.04580152671755725,23.68
1.0,-0.0784912109375,0.141845703125,0.97882080078125,0.04580152671755725,0.1450381679389313,-0.03816793893129771,23.68
1.0,-0.0902099609375,0.149169921875,0.99005126953125,0.25190839694656486,0.15267175572519084,-0.06870229007633588,23.73
1.0,-0.0865478515625,0.15185546875,0.98907470703125,0.08396946564885496,-0.015267175572519083,-0.022900763358778626,23.64
1.0,-0.0780029296875,0.148193359375,0.98223876953125,0.13740458015267176,0.13740458015267176,-0.05343511450381679,23.68
1.0,-0.0809326171875,0.149658203125,0.98785400390625,0.183206106870229,0.183206106870229,-0.007633587786259542,23.68
1.0,-0.0811767578125,0.1513671875,0.98345947265625,0.2748091603053435,0.22900763358778625,0.022900763358778626,23.73
1.0,-0.0816650390625,0.150390625,0.97686767578125,0.19083969465648856,0.16793893129770993,0.04580152671755725,23.78
1.0,-0.0802001953125,0.152587890625,0.98541259765625,0.16793893129770993,0.04580152671755725,-0.015267175572519083,23.78
1.0,-0.0787353515625,0.148193359375,0.98516845703125,0.022900763358778626,0.35877862595419846,0.030534351145038167,23.68
1.0,-0.0811767578125,0.15283203125,0.98687744140625,0.05343511450381679,0.17557251908396945,0.03816793893129771,23.73
1.0,-0.0821533203125,0.153076171875,0.98248291015625,0.17557251908396945,0.42748091603053434,-0.11450381679389313,23.78
1.0,-0.0882568359375,0.146240234375,0.98858642578125,0.31297709923664124,0.4198473282442748,-0.06870229007633588,23.68
1.0,-0.0806884765625,0.147705078125,0.98858642578125,0.3053435114503817,0.5419847328244275,-0.007633587786259542,23.73
1.0,-0.0845947265625,0.146240234375,0.98248291015625,0.2748091603053435,0.33587786259541985,-0.20610687022900764,23.64
1.0,-0.0853271484375,0.1474609375,0.98223876953125,0.10687022900763359,0.4351145038167939,-0.015267175572519083,23.68
1.0,-0.0838623046875,0.156494140625,0.97833251953125,0.183206106870229,0.4732824427480916,-0.015267175572519083,23.68
1.0,-0.0831298828125,0.147216796875,0.98272705078125,0.03816793893129771,0.4351145038167939,0.03816793893129771,23.73
1.0,-0.0799560546875,0.1533203125,0.98199462890625,0.20610687022900764,0.19083969465648856,0.1450381679389313,23.78
1.0,-0.0802001953125,0.1552734375,0.98614501953125,0.17557251908396945,0.2595419847328244,-0.061068702290076333,23.68
1.0,-0.0870361328125,0.15478515625,0.98394775390625,0.2595419847328244,0.44274809160305345,0.21374045801526717,23.68
1.0,-0.0870361328125,0.15234375,0.98394775390625,0.0916030534351145,0.33587786259541985,0.05343511450381679,23.73
1.0,-0.0845947265625,0.153076171875,0.98052978515625,0.26717557251908397,0.2900763358778626,0.0,23.73
1.0,-0.0865478515625,0.15234375,0.97662353515625,0.25190839694656486,0.5343511450381679,-0.030534351145038167,23.68
1.0,-0.0853271484375,0.148681640625,0.98248291015625,0.2595419847328244,0.366412213740458,0.015267175572519083,23.68
1.0,-0.0831298828125,0.15087890625,0.97930908203125,0.022900763358778626,0.32061068702290074,-0.12213740458015267,23.64
1.0,-0.0775146484375,0.154052734375,0.99224853515625,0.13740458015267176,0.45038167938931295,-0.04580152671755725,23.73
1.0,-0.0828857421875,0.149658203125,0.98809814453125,0.007633587786259542,0.3816793893129771,0.015267175572519083,23.68
1.0,-0.0819091796875,0.153076171875,0.98077392578125,0.07633587786259542,0.4351145038167939,0.015267175572519083,23.64
1.0,-0.0821533203125,0.151611328125,0.97979736328125,-0.10687022900763359,0.26717557251908397,-0.09923664122137404,23.64
1.0,-0.0794677734375,0.145263671875,0.98052978515625,0.35877862595419846,0.0,0.03816793893129771,23.73
1.0,-0.0777587890625,0.151123046875,0.98175048828125,0.0,0.1984732824427481,0.12213740458015267,23.68
1.0,-0.0831298828125,0.15283203125,0.98492431640625,0.16793893129770993,0.21374045801526717,-0.007633587786259542,23.73
1.0,-0.0828857421875,0.152587890625,0.98565673828125,0.22137404580152673,0.2595419847328244,-0.0916030534351145,23.73
1.0,-0.0823974609375,0.156982421875,0.99200439453125,0.16793893129770993,0.1450381679389313,-0.007633587786259542,23.68
1.0,-0.0777587890625,0.1494140625,0.98101806640625,0.16793893129770993,0.12213740458015267,-0.05343511450381679,23.68
1.0,-0.0853271484375,0.151123046875,0.97906494140625,0.030534351145038167,0.24427480916030533,0.1297709923664122,23.64
1.0,-0.0833740234375,0.15283203125,0.98126220703125,0.05343511450381679,0.030534351145038167,0.09923664122137404,23.73
1.0,-0.0750732421875,0.1513671875,0.98321533203125,0.32061068702290074,0.20610687022900764,0.06870229007633588,23.78
1.0,-0.0872802734375,0.155029296875,0.99420166015625,0.06870229007633588,0.22900763358778625,-0.04580152671755725,23.87
1.0,-0.0845947265625,0.15283203125,0.98858642578125,0.25190839694656486,0.22137404580152673,0.09923664122137404,23.64
1.0,-0.0838623046875,0.1474609375,0.98565673828125,0.12213740458015267,0.06870229007633588,-0.09923664122137404,23.68
1.0,-0.0814208984375,0.15234375,0.98516845703125,-0.04580152671755725,0.3053435114503817,-0.07633587786259542,23.78
1.0,-0.0819091796875,0.152587890625,0.99029541015625,0.21374045801526717,0.2824427480916031,0.16030534351145037,23.78
1.0,-0.0826416015625,0.152587890625,0.97686767578125,0.12213740458015267,0.04580152671755725,0.10687022900763359,23.73
1.0,-0.0887451171875,0.150634765625,0.98834228515625,0.22137404580152673,-0.022900763358778626,-0.04580152671755725,23.73
1.0,-0.0799560546875,0.15283203125,0.98931884765625,0.1984732824427481,0.0,-0.015267175572519083,23.68
1.0,-0.0833740234375,0.1513671875,0.98468017578125,-0.015267175572519083,0.13740458015267176,-0.1297709923664122,23.73
1.0,-0.0850830078125,0.15478515625,0.98565673828125,0.21374045801526717,0.2595419847328244,-0.007633587786259542,23.64
1.0,-0.0845947265625,0.14892578125,0.98468017578125,0.11450381679389313,0.10687022900763359,0.09923664122137404,23.73
1.0,-0.0863037109375,0.15185546875,0.98077392578125,0.05343511450381679,0.21374045801526717,0.22900763358778625,23.78
1.0,-0.0787353515625,0.151611328125,0.98419189453125,0.10687022900763359,0.1297709923664122,0.1297709923664122,23.68
1.0,-0.0736083984375,0.14892578125,0.98394775390625,0.20610687022900764,0.21374045801526717,0.022900763358778626,23.73
1.0,-0.0875244140625,0.153564453125,0.98150634765625,0.22900763358778625,0.26717557251908397,-0.1450381679389313,23.68
1.0,-0.0887451171875,0.149169921875,0.98004150390625,0.022900763358778626,0.08396946564885496,0.04580152671755725,23.78
1.0,-0.0836181640625,0.146728515625,0.98199462890625,0.11450381679389313,0.2366412213740458,-0.04580152671755725,23.73
1.0,-0.0789794921875,0.151611328125,0.98712158203125,0.007633587786259542,0.11450381679389313,0.13740458015267176,23.73
1.0,-0.0826416015625,0.1533203125,0.98931884765625,0.07633587786259542,0.03816793893129771,-0.2595419847328244,23.68
1.0,-0.0816650390625,0.150390625,0.98297119140625,0.16793893129770993,0.08396946564885496,-0.17557251908396945,23.68
1.0,-0.0826416015625,0.14794921875,0.97686767578125,0.2366412213740458,0.022900763358778626,0.08396946564885496,23.64
1.0,-0.0828857421875,0.14990234375,0.98052978515625,0.16793893129770993,0.10687022900763359,-0.04580152671755725,23.78
1.0,-0.0841064453125,0.147216796875,0.98468017578125,0.11450381679389313,0.0916030534351145,-0.10687022900763359,23.68
1.0,-0.0841064453125,0.15283203125,0.98565673828125,0.13740458015267176,0.26717557251908397,0.05343511450381679,23.78
1.0,-0.0855712890625,0.145751953125,0.98321533203125,0.19083969465648856,0.3053435114503817,0.0,23.73
1.0,-0.0897216796875,0.150634765625,0.98272705078125,0.15267175572519084,0.24427480916030533,0.030534351145038167,23.73
1.0,-0.0799560546875,0.1533203125,0.97930908203125,0.13740458015267176,0.06870229007633588,-0.17557251908396945,23.78
1.0,-0.0819091796875,0.14404296875,0.98077392578125,0.2366412213740458,0.35877862595419846,-0.06870229007633588,23.78
1.0,-0.0845947265625,0.151611328125,0.99298095703125,0.16793893129770993,0.11450381679389313,-0.15267175572519084,23.73
1.0,-0.0911865234375,0.152099609375,0.98297119140625,0.061068702290076333,0.183206106870229,0.007633587786259542,23.73
1.0,-0.0828857421875,0.151611328125,0.98126220703125,0.2824427480916031,-0.022900763358778626,-0.1297709923664122,23.68
1.0,-0.0863037109375,0.150634765625,0.98321533203125,0.1450381679389313,-0.08396946564885496,-0.11450381679389313,23.78
1.0,-0.0853271484375,0.1494140625,0.98980712890625,0.183206106870229,0.03816793893129771,0.022900763358778626,23.64
1.0,-0.0863037109375,0.1494140625,0.98052978515625,0.1297709923664122,0.21374045801526717,0.015267175572519083,23.73
1.0,-0.0814208984375,0.1455078125,0.98468017578125,0.09923664122137404,0.17557251908396945,-0.04580152671755725,23.68
1.0,-0.0814208984375,0.150634765625,0.99151611328125,0.183206106870229,-0.030534351145038167,-0.1450381679389313,23.73
1.0,-0.0850830078125,0.157470703125,0.97930908203125,0.10687022900763359,0.13740458015267176,-0.04580152671755725,23.82
1.0,-0.0828857421875,0.144775390625,0.98297119140625,0.007633587786259542,0.21374045801526717,-0.07633587786259542,23.78
1.0,-0.0811767578125,0.1474609375,0.98443603515625,0.33587786259541985,0.09923664122137404,0.007633587786259542,23.68
1.0,-0.0833740234375,0.1533203125,0.98809814453125,0.2366412213740458,0.09923664122137404,0.10687022900763359,23.73
1.0,-0.0828857421875,0.156005859375,0.98907470703125,0.2595419847328244,0.3893129770992366,-0.10687022900763359,23.73
1.0,-0.0870361328125,0.15087890625,0.98785400390625,0.07633587786259542,0.22900763358778625,-0.1450381679389313,23.59
1.0,-0.0826416015625,0.1513671875,0.98712158203125,0.3053435114503817,0.3053435114503817,-0.0916030534351145,23.68
1.0,-0.0831298828125,0.15625,0.97613525390625,0.11450381679389313,0.06870229007633588,-0.10687022900763359,23.78
1.0,-0.0850830078125,0.151123046875,0.98077392578125,0.05343511450381679,0.13740458015267176,-0.06870229007633588,23.73
1.0,-0.0841064453125,0.14697265625,0.98443603515625,0.13740458015267176,0.22137404580152673,-0.061068702290076333,23.64
1.0,-0.0821533203125,0.154296875,0.99102783203125,0.1450381679389313,0.12213740458015267,-0.07633587786259542,23.68
1.0,-0.0860595703125,0.1474609375,0.96856689453125,0.2748091603053435,-0.05343511450381679,0.007633587786259542,23.68
1.0,-0.0858154296875,0.151611328125,0.99102783203125,0.22137404580152673,-0.09923664122137404,0.0916030534351145,23.64
1.0,-0.0848388671875,0.1494140625,0.99029541015625,0.183206106870229,0.13740458015267176,-0.04580152671755725,23.73
1.0,-0.0885009765625,0.1484375,0.99176025390625,0.183206106870229,0.08396946564885496,-0.11450381679389313,23.78
1.0,-0.0877685546875,0.15283203125,0.98809814453125,-0.08396946564885496,0.19083969465648856,0.05343511450381679,23.78
1.0,-0.0804443359375,0.146484375,0.97833251953125,0.15267175572519084,0.24427480916030533,-0.09923664122137404,23.64
1.0,-0.0814208984375,0.14794921875,0.97784423828125,0.10687022900763359,0.25190839694656486,-0.04580152671755725,23.73
1.0,-0.0836181640625,0.15380859375,0.99444580078125,0.022900763358778626,0.20610687022900764,0.07633587786259542,23.78
1.0,-0.0814208984375,0.1533203125,0.98126220703125,0.19083969465648856,0.183206106870229,-0.06870229007633588,23.68
1.0,-0.0843505859375,0.152587890625,0.98272705078125,0.030534351145038167,0.030534351145038167,-0.11450381679389313,23.73
1.0,-0.0760498046875,0.15234375,0.97979736328125,0.2595419847328244,0.40458015267175573,0.07633587786259542,23.64
1.0,-0.0853271484375,0.146240234375,0.98565673828125,0.2748091603053435,0.2900763358778626,-0.0916030534351145,23.68
1.0,-0.0804443359375,0.14599609375,0.98175048828125,0.183206106870229,0.1297709923664122,0.04580152671755725,23.68
1.0,-0.0816650390625,0.156005859375,0.98004150390625,0.25190839694656486,0.4198473282442748,-0.1450381679389313,23.73
1.0,-0.0789794921875,0.152587890625,0.97808837890625,0.22137404580152673,0.20610687022900764,0.022900763358778626,23.64
1.0,-0.0799560546875,0.15087890625,0.98370361328125,0.29770992366412213,0.1297709923664122,-0.022900763358778626,23.68
1.0,-0.0858154296875,0.148193359375,0.98345947265625,0.06870229007633588,-0.08396946564885496,-0.11450381679389313,23.68
1.0,-0.0858154296875,0.152587890625,0.98297119140625,0.16030534351145037,-0.16793893129770993,-0.1297709923664122,23.64
1.0,-0.0841064453125,0.14501953125,0.97906494140625,0.1984732824427481,-0.09923664122137404,0.061068702290076333,23.68
1.0,-0.0828857421875,0.150146484375,0.98638916015625,0.1450381679389313,0.08396946564885496,0.13740458015267176,23.68
1.0,-0.0850830078125,0.156005859375,0.98052978515625,0.1297709923664122,0.05343511450381679,-0.061068702290076333,23.68
1.0,-0.0845947265625,0.151123046875,0.98345947265625,0.16793893129770993,0.1984732824427481,0.04580152671755725,23.73
1.0,-0.0865478515625,0.1484375,0.98223876953125,0.16030534351145037,0.17557251908396945,-0.06870229007633588,23.73
1.0,-0.0833740234375,0.15283203125,0.97906494140625,0.3053435114503817,0.6106870229007634,-0.17557251908396945,23.78
1.0,-0.0848388671875,0.15283203125,0.98175048828125,0.26717557251908397,0.5190839694656488,-0.1297709923664122,23.78
1.0,-0.0841064453125,0.15869140625,0.99005126953125,0.12213740458015267,0.549618320610687,0.0916030534351145,23.64
1.0,-0.0870361328125,0.151123046875,0.98370361328125,0.32061068702290074,0.48091603053435117,-0.007633587786259542,23.73
1.0,-0.0833740234375,0.155517578125,0.98223876953125,0.16030534351145037,0.648854961832061,0.03816793893129771,23.68
1.0,-0.0841064453125,0.1513671875,0.98199462890625,0.11450381679389313,0.48091603053435117,-0.015267175572519083,23.68
1.0,-0.0831298828125,0.146484375,0.99102783203125,0.183206106870229,0.3282442748091603,-0.03816793893129771,23.73
1.0,-0.0819091796875,0.147216796875,0.98736572265625,0.07633587786259542,0.17557251908396945,-0.03816793893129771,23.68
1.0,-0.0877685546875,0.1513671875,0.97930908203125,0.19083969465648856,0.5801526717557252,-0.04580152671755725,23.78
1.0,-0.0816650390625,0.149169921875,0.98028564453125,0.061068702290076333,0.26717557251908397,-0.12213740458015267,23.68
1.0,-0.0831298828125,0.15576171875,0.98394775390625,0.24427480916030533,-0.1984732824427481,0.12213740458015267,23.73
1.0,-0.0821533203125,0.15380859375,0.97882080078125,0.3511450381679389,-0.022900763358778626,-0.06870229007633588,23.78
1.0,-0.0828857421875,0.146240234375,0.98638916015625,0.1450381679389313,-0.007633587786259542,-0.007633587786259542,23.78
1.0,-0.0853271484375,0.1494140625,0.98199462890625,0.16793893129770993,-0.05343511450381679,-0.030534351145038167,23.87
1.0,-0.0906982421875,0.152099609375,0.98638916015625,0.07633587786259542,0.007633587786259542,-0.015267175572519083,23.82
1.0,-0.0794677734375,0.154052734375,0.98858642578125,0.19083969465648856,-0.022900763358778626,0.07633587786259542,23.73
1.0,-0.0814208984375,0.1552734375,0.98272705078125,0.06870229007633588,0.06870229007633588,0.06870229007633588,23.68
1.0,-0.0821533203125,0.1533203125,0.98907470703125,-0.06870229007633588,0.1450381679389313,-0.04580152671755725,23.73
1.0,-0.0804443359375,0.15087890625,0.97906494140625,0.13740458015267176,0.11450381679389313,0.10687022900763359,23.73
1.0,-0.0897216796875,0.15234375,0.97442626953125,0.07633587786259542,0.22900763358778625,-0.022900763358778626,23.68
1.0,-0.0794677734375,0.15576171875,0.98248291015625,0.17557251908396945,0.33587786259541985,-0.007633587786259542,23.68
1.0,-0.0806884765625,0.1494140625,0.97955322265625,0.09923664122137404,0.33587786259541985,-0.21374045801526717,23.73
1.0,-0.0775146484375,0.147216796875,0.99322509765625,0.007633587786259542,0.22137404580152673,-0.030534351145038167,23.73
1.0,-0.0789794921875,0.15234375,0.98199462890625,0.16793893129770993,0.1450381679389313,-0.09923664122137404,23.78
1.0,-0.0880126953125,0.1533203125,0.99005126953125,0.22137404580152673,0.12213740458015267,-0.030534351145038167,23.68
1.0,-0.0853271484375,0.148681640625,0.97589111328125,0.22137404580152673,0.022900763358778626,0.03816793893129771,23.68
1.0,-0.0819091796875,0.148193359375,0.98443603515625,0.16030534351145037,0.015267175572519083,-0.06870229007633588,23.73
1.0,-0.0848388671875,0.1474609375,0.99273681640625,0.16030534351145037,0.16030534351145037,-0.12213740458015267,23.78
1.0,-0.0860595703125,0.1513671875,0.98223876953125,0.17557251908396945,0.13740458015267176,0.12213740458015267,23.78
1.0,-0.0894775390625,0.15234375,0.97979736328125,0.33587786259541985,0.007633587786259542,0.04580152671755725,23.82
1.0,-0.0850830078125,0.150390625,0.98663330078125,0.022900763358778626,0.21374045801526717,0.10687022900763359,23.73
1.0,-0.0838623046875,0.15380859375,0.98101806640625,0.2366412213740458,0.10687022900763359,-0.015267175572519083,23.68
1.0,-0.0836181640625,0.14794921875,0.98516845703125,0.11450381679389313,0.03816793893129771,-0.19083969465648856,23.68
1.0,-0.0797119140625,0.15234375,0.97760009765625,0.07633587786259542,0.22137404580152673,0.09923664122137404,23.73
1.0,-0.0787353515625,0.14990234375,0.98590087890625,0.2748091603053435,0.40458015267175573,0.05343511450381679,23.64
1.0,-0.0792236328125,0.146728515625,0.98492431640625,0.16030534351145037,0.21374045801526717,-0.11450381679389313,23.68
1.0,-0.0831298828125,0.147216796875,0.99102783203125,0.09923664122137404,0.26717557251908397,-0.10687022900763359,23.68
1.0,-0.0797119140625,0.1552734375,0.98834228515625,0.4198473282442748,0.2366412213740458,-0.03816793893129771,23.64
1.0,-0.0828857421875,0.150146484375,0.97613525390625,0.10687022900763359,0.22137404580152673,-0.16030534351145037,23.73
1.0,-0.0775146484375,0.1494140625,0.98248291015625,0.12213740458015267,0.24427480916030533,-0.007633587786259542,23.82
1.0,-0.0797119140625,0.15283203125,0.99029541015625,0.015267175572519083,0.4198473282442748,-0.061068702290076333,23.78
1.0,-0.0823974609375,0.149658203125,0.97613525390625,0.1450381679389313,0.2366412213740458,0.030534351145038167,23.68
1.0,-0.0782470703125,0.15234375,0.98101806640625,0.0916030534351145,0.26717557251908397,0.03816793893129771,23.73
1.0,-0.0860595703125,0.144775390625,0.98101806640625,0.15267175572519084,0.26717557251908397,-0.19083969465648856,23.68
1.0,-0.0845947265625,0.153076171875,0.98052978515625,0.25190839694656486,0.007633587786259542,-0.11450381679389313,23.78
1.0,-0.0836181640625,0.14990234375,0.98077392578125,0.10687022900763359,0.24427480916030533,-0.015267175572519083,23.73
1.0,-0.0843505859375,0.146240234375,0.97686767578125,0.25190839694656486,0.17557251908396945,-0.0916030534351145,23.73
1.0,-0.0814208984375,0.151611328125,0.98370361328125,0.1297709923664122,0.19083969465648856,0.015267175572519083,23.78
1.0,-0.0823974609375,0.14990234375,0.98736572265625,0.21374045801526717,0.1450381679389313,0.061068702290076333,23.78
1.0,-0.0850830078125,0.1533203125,0.97808837890625,0.3893129770992366,0.2366412213740458,-0.007633587786259542,23.73
1.0,-0.0811767578125,0.15087890625,0.98834228515625,0.16793893129770993,0.09923664122137404,0.030534351145038167,23.73
1.0,-0.0845947265625,0.1474609375,0.98834228515625,0.19083969465648856,0.15267175572519084,-0.09923664122137404,23.68
1.0,-0.0865478515625,0.146728515625,0.98272705078125,0.16030534351145037,0.1984732824427481,-0.05343511450381679,23.68
1.0,-0.0848388671875,0.1484375,0.98150634765625,0.0916030534351145,0.11450381679389313,-0.12213740458015267,23.82
1.0,-0.0860595703125,0.151123046875,0.98052978515625,0.3893129770992366,0.17557251908396945,-0.061068702290076333,23.82
1.0,-0.0819091796875,0.15234375,0.98638916015625,0.13740458015267176,0.12213740458015267,0.03816793893129771,23.73
1.0,-0.0906982421875,0.14892578125,0.98272705078125,0.04580152671755725,0.366412213740458,0.061068702290076333,23.68
1.0,-0.0880126953125,0.1455078125,0.99200439453125,0.13740458015267176,0.12213740458015267,-0.04580152671755725,23.82
1.0,-0.0816650390625,0.14697265625,0.98175048828125,0.08396946564885496,0.1984732824427481,-0.03816793893129771,23.73
1.0,-0.0811767578125,0.155029296875,0.98345947265625,0.2366412213740458,0.13740458015267176,-0.13740458015267176,23.78
1.0,-0.0833740234375,0.153564453125,0.98687744140625,0.3435114503816794,0.3511450381679389,-0.1297709923664122,23.78
1.0,-0.0904541015625,0.15087890625,0.98101806640625,0.19083969465648856,0.24427480916030533,-0.015267175572519083,23.68
1.0,-0.0850830078125,0.151611328125,0.97857666015625,-0.05343511450381679,0.1450381679389313,0.022900763358778626,23.64
1.0,-0.0777587890625,0.152099609375,0.98809814453125,0.2748091603053435,0.16793893129770993,-0.07633587786259542,23.73
1.0,-0.0828857421875,0.143798828125,0.97686767578125,0.09923664122137404,0.3435114503816794,-0.16793893129770993,23.68
1.0,-0.0819091796875,0.15283203125,0.98321533203125,0.20610687022900764,0.2595419847328244,0.1297709923664122,23.78
1.0,-0.0794677734375,0.152099609375,0.99053955078125,0.26717557251908397,0.19083969465648856,0.015267175572519083,23.73
1.0,-0.0806884765625,0.153564453125,0.98443603515625,0.04580152671755725,0.22900763358778625,-0.0916030534351145,23.73
1.0,-0.0819091796875,0.15087890625,0.97711181640625,0.15267175572519084,0.366412213740458,-0.06870229007633588,23.68
1.0,-0.0821533203125,0.154052734375,0.97906494140625,0.366412213740458,0.1450381679389313,-0.15267175572519084,23.78
1.0,-0.0902099609375,0.154052734375,0.99151611328125,0.24427480916030533,0.29770992366412213,-0.09923664122137404,23.64
1.0,-0.0809326171875,0.156494140625,0.98370361328125,0.0916030534351145,0.16793893129770993,0.2900763358778626,23.73
1.0,-0.0828857421875,0.15380859375,0.98077392578125,0.31297709923664124,0.061068702290076333,-0.022900763358778626,23.78
1.0,-0.0794677734375,0.146728515625,0.98345947265625,0.20610687022900764,0.21374045801526717,-0.10687022900763359,23.78
1.0,-0.0848388671875,0.150390625,0.98175048828125,0.17557251908396945,0.2824427480916031,0.0,23.73
1.0,-0.0843505859375,0.148193359375,0.98614501953125,0.24427480916030533,0.04580152671755725,0.030534351145038167,23.68
1.0,-0.0855712890625,0.150146484375,0.98785400390625,0.183206106870229,0.1450381679389313,-0.0916030534351145,23.78
1.0,-0.0819091796875,0.15185546875,0.97125244140625,0.19083969465648856,0.061068702290076333,-0.15267175572519084,23.68
1.0,-0.0809326171875,0.1552734375,0.98394775390625,0.13740458015267176,0.1297709923664122,-0.183206106870229,23.64
1.0,-0.0823974609375,0.1552734375,0.98541259765625,0.17557251908396945,0.1450381679389313,-0.0916030534351145,23.73
1.0,-0.0828857421875,0.1494140625,0.97784423828125,0.12213740458015267,0.10687022900763359,-0.08396946564885496,23.78
1.0,-0.0775146484375,0.1484375,0.98809814453125,0.2824427480916031,0.007633587786259542,0.007633587786259542,23.68
1.0,-0.0833740234375,0.1474609375,0.97784423828125,0.17557251908396945,0.13740458015267176,-0.030534351145038167,23.73
1.0,-0.0821533203125,0.1494140625,0.97442626953125,0.3816793893129771,0.061068702290076333,-0.015267175572519083,23.73
1.0,-0.0782470703125,0.147705078125,0.98785400390625,0.007633587786259542,0.4122137404580153,0.015267175572519083,23.87
1.0,-0.0726318359375,0.149658203125,0.98297119140625,0.10687022900763359,0.04580152671755725,-0.061068702290076333,23.68
1.0,-0.0787353515625,0.154052734375,0.98468017578125,0.19083969465648856,0.183206106870229,-0.022900763358778626,23.73
1.0,-0.0833740234375,0.15087890625,0.99102783203125,0.022900763358778626,-0.10687022900763359,-0.05343511450381679,23.73
1.0,-0.0836181640625,0.148681640625,0.97930908203125,0.17557251908396945,0.17557251908396945,-0.0916030534351145,23.68
1.0,-0.0828857421875,0.153564453125,0.98370361328125,0.16030534351145037,0.05343511450381679,0.11450381679389313,23.78
1.0,-0.0841064453125,0.15283203125,0.98858642578125,0.07633587786259542,0.12213740458015267,0.0916030534351145,23.73
1.0,-0.0860595703125,0.14892578125,0.98492431640625,0.10687022900763359,0.21374045801526717,0.17557251908396945,23.78
1.0,-0.0841064453125,0.154296875,0.98785400390625,0.3969465648854962,0.1984732824427481,0.0916030534351145,23.78
1.0,-0.0780029296875,0.146728515625,0.98590087890625,0.2748091603053435,0.2748091603053435,-0.08396946564885496,23.68
1.0,-0.0865478515625,0.15380859375,0.97906494140625,0.0916030534351145,0.09923664122137404,-0.183206106870229,23.73
1.0,-0.0819091796875,0.1513671875,0.97637939453125,0.26717557251908397,0.29770992366412213,-0.07633587786259542,23.64
1.0,-0.0870361328125,0.1484375,0.98101806640625,0.26717557251908397,0.1450381679389313,-0.007633587786259542,23.68
1.0,-0.0823974609375,0.152099609375,0.98394775390625,0.030534351145038167,0.25190839694656486,0.0,23.68
1.0,-0.0853271484375,0.15380859375,0.98614501953125,0.13740458015267176,0.33587786259541985,0.007633587786259542,23.82
1.0,-0.0870361328125,0.1513671875,0.97515869140625,0.183206106870229,0.24427480916030533,-0.04580152671755725,23.82
1.0,-0.0794677734375,0.153564453125,0.98028564453125,0.11450381679389313,0.2366412213740458,-0.05343511450381679,23.68
1.0,-0.0845947265625,0.154541015625,0.98809814453125,0.16793893129770993,0.25190839694656486,0.061068702290076333,23.68
1.0,-0.0858154296875,0.15283203125,0.98052978515625,0.11450381679389313,0.15267175572519084,-0.11450381679389313,23.73
1.0,-0.0811767578125,0.153564453125,0.98394775390625,0.183206106870229,0.16793893129770993,0.1297709923664122,23.73
1.0,-0.0850830078125,0.148681640625,0.97393798828125,0.17557251908396945,0.3893129770992366,-0.03816793893129771,23.68
1.0,-0.0777587890625,0.152587890625,0.98687744140625,0.11450381679389313,0.45038167938931295,-0.13740458015267176,23.78
1.0,-0.0843505859375,0.150390625,0.98638916015625,0.22137404580152673,0.7099236641221374,0.030534351145038167,23.73
1.0,-0.0806884765625,0.14892578125,0.98907470703125,0.10687022900763359,1.0458015267175573,0.0916030534351145,23.73
1.0,-0.0828857421875,0.149658203125,0.98004150390625,0.11450381679389313,1.0305343511450382,0.030534351145038167,23.78
1.0,-0.0892333984375,0.15673828125,0.99664306640625,0.16030534351145037,0.5114503816793893,0.007633587786259542,23.68
1.0,-0.0841064453125,0.1552734375,0.98443603515625,0.22137404580152673,-0.10687022900763359,-0.03816793893129771,23.73
1.0,-0.0789794921875,0.15234375,0.98370361328125,0.2366412213740458,-0.6412213740458015,0.22137404580152673,23.64
1.0,-0.0821533203125,0.153076171875,0.98980712890625,0.10687022900763359,-0.31297709923664124,-0.030534351145038167,23.78
1.0,-0.0802001953125,0.150634765625,0.98028564453125,0.20610687022900764,0.2824427480916031,0.06870229007633588,23.68
1.0,-0.0924072265625,0.15380859375,0.98736572265625,0.2595419847328244,0.1984732824427481,-0.030534351145038167,23.68
1.0,-0.0882568359375,0.15478515625,0.98834228515625,0.25190839694656486,0.1450381679389313,0.061068702290076333,23.82
1.0,-0.0867919921875,0.149169921875,0.99176025390625,-0.06870229007633588,-0.48854961832061067,-0.015267175572519083,23.73
1.0,-0.0836181640625,0.1474609375,0.98858642578125,0.24427480916030533,-0.6412213740458015,0.07633587786259542,23.68
1.0,-0.0767822265625,0.15234375,0.97662353515625,0.2595419847328244,0.022900763358778626,-0.0916030534351145,23.68
1.0,-0.0865478515625,0.152099609375,0.97711181640625,0.3893129770992366,0.12213740458015267,0.0,23.82
1.0,-0.0836181640625,0.152587890625,0.98712158203125,0.366412213740458,0.061068702290076333,-0.15267175572519084,23.64
1.0,-0.0833740234375,0.14794921875,0.98199462890625,0.07633587786259542,-0.03816793893129771,-0.061068702290076333,23.78
1.0,-0.0870361328125,0.14892578125,0.98858642578125,0.07633587786259542,-0.16793893129770993,0.05343511450381679,23.78
1.0,-0.0799560546875,0.155029296875,0.98248291015625,0.09923664122137404,0.0,-0.0916030534351145,23.73
1.0,-0.0809326171875,0.149658203125,0.97979736328125,0.04580152671755725,-0.08396946564885496,-0.061068702290076333,23.82
1.0,-0.0833740234375,0.1513671875,0.98223876953125,0.061068702290076333,-0.183206106870229,0.09923664122137404,23.68
1.0,-0.0828857421875,0.15283203125,0.98663330078125,0.3969465648854962,0.3282442748091603,0.1297709923664122,23.78
1.0,-0.0845947265625,0.15673828125,0.97906494140625,0.1297709923664122,0.2824427480916031,-0.030534351145038167,23.73
1.0,-0.0841064453125,0.1552734375,0.98663330078125,0.12213740458015267,0.4961832061068702,0.10687022900763359,23.73
1.0,-0.0841064453125,0.14990234375,0.98614501953125,0.061068702290076333,0.183206106870229,0.030534351145038167,23.78
1.0,-0.0804443359375,0.149658203125,0.98834228515625,0.11450381679389313,0.19083969465648856,-0.030534351145038167,23.68
1.0,-0.0814208984375,0.150146484375,0.98272705078125,0.11450381679389313,0.9389312977099237,-0.0916030534351145,23.73
1.0,-0.0787353515625,0.145263671875,0.97198486328125,0.09923664122137404,1.450381679389313,0.15267175572519084,23.73
1.0,-0.0841064453125,0.154541015625,0.98687744140625,0.2824427480916031,1.6106870229007633,0.08396946564885496,23.73
1.0,-0.0816650390625,0.157470703125,0.99176025390625,0.07633587786259542,0.7480916030534351,-0.007633587786259542,23.78
1.0,-0.0855712890625,0.15185546875,0.99224853515625,0.08396946564885496,0.3435114503816794,-0.030534351145038167,23.78
1.0,-0.0787353515625,0.150634765625,0.97296142578125,0.022900763358778626,0.4351145038167939,0.04580152671755725,23.73
1.0,-0.0787353515625,0.1474609375,0.99102783203125,0.16030534351145037,0.5725190839694656,0.1450381679389313,23.73
1.0,-0.0882568359375,0.14794921875,0.97418212890625,0.06870229007633588,0.4580152671755725,-0.06870229007633588,23.68
1.0,-0.0863037109375,0.148681640625,0.98809814453125,0.11450381679389313,-0.183206106870229,0.22137404580152673,23.64
1.0,-0.0794677734375,0.15087890625,0.98394775390625,0.13740458015267176,-0.42748091603053434,0.183206106870229,23.73
1.0,-0.0787353515625,0.14794921875,0.98614501953125,0.0916030534351145,-0.7557251908396947,0.0916030534351145,23.73
1.0,-0.0843505859375,0.14892578125,0.97711181640625,0.061068702290076333,-0.8396946564885496,0.09923664122137404,23.78
1.0,-0.0823974609375,0.15185546875,0.98321533203125,0.19083969465648856,-0.4580152671755725,0.061068702290076333,23.78
1.0,-0.0845947265625,0.1484375,0.98394775390625,0.4351145038167939,-0.5419847328244275,0.015267175572519083,23.73
1.0,-0.0838623046875,0.154541015625,0.98345947265625,0.0916030534351145,-0.25190839694656486,-0.022900763358778626,23.82
1.0,-0.0792236328125,0.14990234375,0.97784423828125,0.3282442748091603,-0.07633587786259542,0.1450381679389313,23.78
1.0,-0.0816650390625,0.15185546875,0.99176025390625,0.3435114503816794,0.3053435114503817,0.04580152671755725,23.78
1.0,-0.0848388671875,0.155029296875,0.99346923828125,0.25190839694656486,0.2595419847328244,0.16793893129770993,23.73
1.0,-0.0787353515625,0.14794921875,0.98248291015625,0.22137404580152673,0.19083969465648856,0.21374045801526717,23.73
1.0,-0.0797119140625,0.151611328125,0.99224853515625,0.22900763358778625,0.5190839694656488,-0.08396946564885496,23.68
1.0,-0.0804443359375,0.15185546875,0.98760986328125,0.15267175572519084,0.9312977099236641,-0.0916030534351145,23.78
1.0,-0.0850830078125,0.149658203125,0.99322509765625,0.1984732824427481,0.3969465648854962,-0.04580152671755725,23.68
1.0,-0.0863037109375,0.14892578125,0.98223876953125,0.2595419847328244,0.16030534351145037,-0.015267175572519083,23.73
1.0,-0.0758056640625,0.14794921875,0.97613525390625,0.21374045801526717,0.5419847328244275,-0.04580152671755725,23.82
1.0,-0.0792236328125,0.151611328125,0.98272705078125,0.05343511450381679,1.2671755725190839,0.09923664122137404,23.68
1.0,-0.0870361328125,0.15283203125,0.98370361328125,0.3816793893129771,1.1145038167938932,0.07633587786259542,23.78
1.0,-0.0814208984375,0.14892578125,0.97149658203125,0.05343511450381679,0.33587786259541985,0.09923664122137404,23.73
1.0,-0.0848388671875,0.150146484375,0.97784423828125,0.09923664122137404,0.3816793893129771,-0.08396946564885496,23.64
1.0,-0.0789794921875,0.1533203125,0.99468994140625,0.10687022900763359,1.1221374045801527,0.03816793893129771,23.68
1.0,-0.0804443359375,0.15185546875,0.98883056640625,0.1984732824427481,0.6946564885496184,-0.1297709923664122,23.78
1.0,-0.0880126953125,0.1484375,0.99102783203125,0.061068702290076333,-0.13740458015267176,-0.061068702290076333,23.64
1.0,-0.0858154296875,0.14599609375,0.98297119140625,-0.007633587786259542,-0.16793893129770993,-0.015267175572519083,23.73
1.0,-0.0792236328125,0.15380859375,0.98614501953125,0.22900763358778625,-0.12213740458015267,-0.1297709923664122,23.73
1.0,-0.0838623046875,0.15087890625,0.98419189453125,0.10687022900763359,-0.21374045801526717,-0.1450381679389313,23.78
1.0,-0.0882568359375,0.150390625,0.98175048828125,-0.061068702290076333,-0.2900763358778626,-0.16793893129770993,23.78
1.0,-0.0865478515625,0.15185546875,0.98321533203125,0.19083969465648856,-0.22900763358778625,-0.2366412213740458,23.78
1.0,-0.0823974609375,0.156005859375,0.98150634765625,0.32061068702290074,-0.015267175572519083,-0.08396946564885496,23.73
1.0,-0.0841064453125,0.152099609375,0.97540283203125,0.16793893129770993,-0.03816793893129771,-0.15267175572519084,23.73
1.0,-0.0806884765625,0.15771484375,0.98712158203125,0.16793893129770993,-0.2366412213740458,0.22137404580152673,23.68
1.0,-0.0841064453125,0.1494140625,0.98272705078125,0.19083969465648856,0.0,0.05343511450381679,23.78
1.0,-0.0860595703125,0.14990234375,0.98150634765625,0.06870229007633588,-0.17557251908396945,-0.030534351145038167,23.64
1.0,-0.0772705078125,0.150390625,0.98541259765625,0.1297709923664122,0.2748091603053435,-0.10687022900763359,23.82
1.0,-0.0841064453125,0.151611328125,0.98712158203125,0.030534351145038167,0.35877862595419846,0.15267175572519084,23.73
1.0,-0.0792236328125,0.151123046875,0.98931884765625,0.20610687022900764,0.6030534351145038,-0.13740458015267176,23.68
1.0,-0.0836181640625,0.15478515625,0.97979736328125,0.3816793893129771,1.0229007633587786,0.007633587786259542,23.73
1.0,-0.0858154296875,0.150390625,0.98638916015625,0.3816793893129771,0.8931297709923665,-0.015267175572519083,23.73
1.0,-0.0789794921875,0.1455078125,0.98052978515625,0.24427480916030533,0.6717557251908397,-0.06870229007633588,23.73
1.0,-0.0831298828125,0.150390625,0.97613525390625,0.16030534351145037,0.3893129770992366,-0.08396946564885496,23.68
1.0,-0.0892333984375,0.152587890625,0.98150634765625,0.1450381679389313,0.48854961832061067,-0.007633587786259542,23.78
1.0,-0.0770263671875,0.148681640625,0.98712158203125,0.10687022900763359,0.5343511450381679,-0.0916030534351145,23.82
1.0,-0.0777587890625,0.151123046875,0.99053955078125,0.030534351145038167,0.29770992366412213,-0.08396946564885496,23.73
1.0,-0.0882568359375,0.156494140625,0.98712158203125,0.31297709923664124,0.16793893129770993,-0.007633587786259542,23.68
1.0,-0.0867919921875,0.1533203125,0.97613525390625,-0.11450381679389313,0.13740458015267176,-0.022900763358778626,23.68
1.0,-0.0867919921875,0.145751953125,0.97491455078125,0.04580152671755725,-0.16793893129770993,0.030534351145038167,23.64
1.0,-0.0906982421875,0.150146484375,0.98297119140625,0.17557251908396945,-0.09923664122137404,0.015267175572519083,23.82
1.0,-0.0855712890625,0.1533203125,0.99468994140625,0.0916030534351145,-0.31297709923664124,-0.24427480916030533,23.78
1.0,-0.0882568359375,0.148193359375,0.98638916015625,0.37404580152671757,-0.2748091603053435,0.08396946564885496,23.68
1.0,-0.0821533203125,0.15283203125,0.98028564453125,0.08396946564885496,-0.06870229007633588,-0.10687022900763359,23.78
1.0,-0.0780029296875,0.152587890625,0.98077392578125,0.22137404580152673,-0.11450381679389313,-0.24427480916030533,23.64
1.0,-0.0841064453125,0.149658203125,0.98223876953125,0.10687022900763359,0.06870229007633588,-0.015267175572519083,23.82
1.0,-0.0804443359375,0.155517578125,0.98297119140625,0.030534351145038167,0.19083969465648856,-0.13740458015267176,23.68
1.0,-0.0797119140625,0.15625,0.98199462890625,0.1297709923664122,0.2824427480916031,0.0916030534351145,23.87
1.0,-0.0870361328125,0.1533203125,0.98077392578125,0.21374045801526717,0.40458015267175573,-0.06870229007633588,23.73
1.0,-0.0775146484375,0.1533203125,0.98712158203125,-0.03816793893129771,0.44274809160305345,-0.1450381679389313,23.73
1.0,-0.0762939453125,0.15478515625,0.97784423828125,0.007633587786259542,0.7862595419847328,-0.22137404580152673,23.87
1.0,-0.0841064453125,0.15283203125,0.98370361328125,0.183206106870229,0.7938931297709924,-0.007633587786259542,23.78
1.0,-0.0833740234375,0.145263671875,0.97760009765625,0.09923664122137404,0.6717557251908397,-0.030534351145038167,23.78
1.0,-0.0814208984375,0.15185546875,0.98370361328125,0.2748091603053435,0.5801526717557252,0.022900763358778626,23.73
1.0,-0.0814208984375,0.151123046875,0.99053955078125,0.0916030534351145,0.25190839694656486,-0.007633587786259542,23.78
1.0,-0.0823974609375,0.150390625,0.98272705078125,0.07633587786259542,0.3893129770992366,-0.20610687022900764,23.87
1.0,-0.0848388671875,0.1533203125,0.98101806640625,0.19083969465648856,0.37404580152671757,-0.11450381679389313,23.68
1.0,-0.0867919921875,0.145263671875,0.98663330078125,0.1984732824427481,0.03816793893129771,-0.03816793893129771,23.73
1.0,-0.0816650390625,0.1513671875,0.97857666015625,0.26717557251908397,0.22137404580152673,-0.061068702290076333,23.73
1.0,-0.0850830078125,0.15625,0.97808837890625,0.22900763358778625,0.3053435114503817,0.05343511450381679,23.78
1.0,-0.0845947265625,0.151123046875,0.97686767578125,0.24427480916030533,0.183206106870229,-0.11450381679389313,23.68
1.0,-0.0833740234375,0.149169921875,0.98272705078125,0.26717557251908397,0.03816793893129771,-0.007633587786259542,23.73
1.0,-0.0872802734375,0.154052734375,0.99298095703125,0.26717557251908397,0.32061068702290074,0.09923664122137404,23.68
1.0,-0.0765380859375,0.15576171875,0.98370361328125,-0.030534351145038167,0.16030534351145037,-0.007633587786259542,23.78
1.0,-0.0823974609375,0.150146484375,0.99224853515625,0.11450381679389313,0.4961832061068702,0.007633587786259542,23.73
1.0,-0.0841064453125,0.14697265625,0.98736572265625,0.13740458015267176,0.15267175572519084,-0.03816793893129771,23.73
1.0,-0.0792236328125,0.14794921875,0.97589111328125,0.24427480916030533,0.40458015267175573,-0.20610687022900764,23.68
1.0,-0.0821533203125,0.150146484375,0.97711181640625,0.0,0.1297709923664122,-0.19083969465648856,23.78
1.0,-0.0814208984375,0.147216796875,0.98492431640625,0.1984732824427481,0.05343511450381679,0.05343511450381679,23.73
1.0,-0.0855712890625,0.15673828125,0.98199462890625,0.07633587786259542,0.366412213740458,0.10687022900763359,23.73
1.0,-0.0743408203125,0.156494140625,0.98370361328125,0.10687022900763359,0.07633587786259542,0.04580152671755725,23.78
1.0,-0.0882568359375,0.150146484375,0.98590087890625,0.2900763358778626,0.3511450381679389,-0.07633587786259542,23.78
1.0,-0.0841064453125,0.1513671875,0.98248291015625,0.22137404580152673,0.3435114503816794,-0.08396946564885496,23.73
1.0,-0.0797119140625,0.15478515625,0.98883056640625,0.16030534351145037,0.2748091603053435,-0.022900763358778626,23.82
1.0,-0.0745849609375,0.15234375,0.98345947265625,0.15267175572519084,0.09923664122137404,-0.08396946564885496,23.73
1.0,-0.0804443359375,0.15478515625,0.98199462890625,0.1297709923664122,0.11450381679389313,-0.07633587786259542,23.68
1.0,-0.0838623046875,0.14892578125,0.98883056640625,0.10687022900763359,0.061068702290076333,-0.007633587786259542,23.68
1.0,-0.0826416015625,0.155029296875,0.98419189453125,0.22137404580152673,0.20610687022900764,-0.061068702290076333,23.64
1.0,-0.0899658203125,0.150146484375,0.98321533203125,0.07633587786259542,0.20610687022900764,-0.030534351145038167,23.73
1.0,-0.0887451171875,0.152587890625,0.98223876953125,0.21374045801526717,0.09923664122137404,-0.022900763358778626,23.68
1.0,-0.0860595703125,0.154541015625,0.99029541015625,0.19083969465648856,0.15267175572519084,-0.030534351145038167,23.78
1.0,-0.0794677734375,0.14990234375,0.98760986328125,0.24427480916030533,0.20610687022900764,-0.11450381679389313,23.73
1.0,-0.0833740234375,0.15087890625,0.98101806640625,0.17557251908396945,0.1450381679389313,0.03816793893129771,23.73
1.0,-0.0882568359375,0.1455078125,0.98321533203125,0.16793893129770993,0.22900763358778625,-0.022900763358778626,23.59
1.0,-0.0826416015625,0.14794921875,0.98565673828125,0.2366412213740458,0.15267175572519084,-0.17557251908396945,23.78
1.0,-0.0843505859375,0.15185546875,0.97735595703125,-0.030534351145038167,0.16793893129770993,0.0916030534351145,23.73
1.0,-0.0897216796875,0.15234375,0.98443603515625,0.183206106870229,0.16793893129770993,-0.007633587786259542,23.68
1.0,-0.0880126953125,0.1484375,0.98028564453125,0.1984732824427481,0.22137404580152673,-0.1450381679389313,23.78
1.0,-0.0809326171875,0.1533203125,0.98150634765625,0.2900763358778626,0.11450381679389313,-0.022900763358778626,23.78
1.0,-0.0889892578125,0.145751953125,0.98834228515625,0.20610687022900764,0.183206106870229,-0.03816793893129771,23.73
1.0,-0.0819091796875,0.14990234375,0.97833251953125,0.20610687022900764,0.21374045801526717,-0.07633587786259542,23.68
1.0,-0.0758056640625,0.1474609375,0.98687744140625,0.04580152671755725,0.08396946564885496,-0.11450381679389313,23.68
1.0,-0.0843505859375,0.153564453125,0.98345947265625,0.2595419847328244,-0.04580152671755725,-0.022900763358778626,23.68
1.0,-0.0819091796875,0.153076171875,0.98956298828125,0.12213740458015267,0.05343511450381679,-0.09923664122137404,23.68
1.0,-0.0794677734375,0.1552734375,0.98760986328125,0.08396946564885496,0.061068702290076333,0.0916030534351145,23.73
1.0,-0.0843505859375,0.15185546875,0.98101806640625,0.11450381679389313,0.08396946564885496,-0.11450381679389313,23.78
1.0,-0.0831298828125,0.1552734375,0.98052978515625,0.1450381679389313,0.16030534351145037,0.015267175572519083,23.68
1.0,-0.0758056640625,0.1494140625,0.99591064453125,0.1297709923664122,0.08396946564885496,0.06870229007633588,23.73
1.0,-0.0838623046875,0.1533203125,0.98541259765625,0.13740458015267176,0.08396946564885496,-0.26717557251908397,23.73
1.0,-0.0841064453125,0.153564453125,0.98931884765625,-0.007633587786259542,-0.007633587786259542,0.08396946564885496,23.68
1.0,-0.0828857421875,0.156494140625,0.99029541015625,0.0916030534351145,0.10687022900763359,-0.03816793893129771,23.78
1.0,-0.0806884765625,0.154052734375,0.98223876953125,0.1984732824427481,0.21374045801526717,-0.061068702290076333,23.82
1.0,-0.0806884765625,0.150390625,0.98712158203125,0.061068702290076333,0.3053435114503817,-0.022900763358778626,23.73
1.0,-0.0833740234375,0.14794921875,0.98443603515625,0.12213740458015267,0.31297709923664124,0.15267175572519084,23.68
1.0,-0.0838623046875,0.152099609375,0.99102783203125,0.08396946564885496,0.11450381679389313,0.0916030534351145,23.68
1.0,-0.0848388671875,0.14404296875,0.98931884765625,0.17557251908396945,0.22137404580152673,-0.1450381679389313,23.82
1.0,-0.0823974609375,0.152099609375,0.97589111328125,0.32061068702290074,0.22137404580152673,-0.03816793893129771,23.78
1.0,-0.0836181640625,0.15234375,0.97491455078125,0.16793893129770993,0.21374045801526717,0.007633587786259542,23.68
1.0,-0.0850830078125,0.150390625,0.97540283203125,0.22900763358778625,0.32061068702290074,0.022900763358778626,23.68
1.0,-0.0799560546875,0.146728515625,0.99200439453125,0.08396946564885496,0.16793893129770993,0.16793893129770993,23.73
1.0,-0.0860595703125,0.153076171875,0.98004150390625,0.061068702290076333,0.35877862595419846,-0.030534351145038167,23.82
1.0,-0.0848388671875,0.149169921875,0.98297119140625,0.0916030534351145,0.12213740458015267,0.03816793893129771,23.78
1.0,-0.0841064453125,0.15283203125,0.98883056640625,0.26717557251908397,-0.015267175572519083,-0.061068702290076333,23.78
1.0,-0.0897216796875,0.1484375,0.98687744140625,0.24427480916030533,0.2824427480916031,0.16793893129770993,23.64
1.0,-0.0821533203125,0.154296875,0.98028564453125,0.17557251908396945,0.2595419847328244,0.0916030534351145,23.73
1.0,-0.0858154296875,0.1533203125,0.98394775390625,0.22137404580152673,-0.015267175572519083,-0.007633587786259542,23.68
1.0,-0.0792236328125,0.154541015625,0.97784423828125,0.16030534351145037,0.17557251908396945,-0.11450381679389313,23.78
1.0,-0.0899658203125,0.1494140625,0.98223876953125,0.29770992366412213,0.4122137404580153,-0.06870229007633588,23.73
1.0,-0.0897216796875,0.146728515625,0.97760009765625,0.1297709923664122,0.16030534351145037,-0.03816793893129771,23.73
1.0,-0.0848388671875,0.150390625,0.97662353515625,0.06870229007633588,0.15267175572519084,-0.05343511450381679,23.78
1.0,-0.0819091796875,0.148193359375,0.98443603515625,0.21374045801526717,0.35877862595419846,0.13740458015267176,23.78
1.0,-0.0853271484375,0.1494140625,0.99566650390625,0.2748091603053435,0.061068702290076333,0.04580152671755725,23.73
1.0,-0.0887451171875,0.14794921875,0.97833251953125,0.2824427480916031,0.3511450381679389,-0.05343511450381679,23.78
1.0,-0.0872802734375,0.153564453125,0.97833251953125,0.16030534351145037,0.29770992366412213,0.05343511450381679,23.68
1.0,-0.0831298828125,0.146484375,0.98516845703125,0.1297709923664122,-0.16793893129770993,0.007633587786259542,23.73
1.0,-0.0799560546875,0.148681640625,0.97735595703125,0.2824427480916031,0.24427480916030533,0.061068702290076333,23.73
1.0,-0.0841064453125,0.15380859375,0.98199462890625,0.07633587786259542,0.2900763358778626,-0.04580152671755725,23.68
1.0,-0.0819091796875,0.148681640625,0.99420166015625,-0.11450381679389313,-0.16793893129770993,-0.12213740458015267,23.78
1.0,-0.0831298828125,0.154052734375,0.99102783203125,0.22900763358778625,0.05343511450381679,0.16030534351145037,23.68
1.0,-0.0938720703125,0.1494140625,0.98321533203125,0.21374045801526717,0.4122137404580153,-0.07633587786259542,23.73
1.0,-0.0870361328125,0.15283203125,0.98345947265625,0.04580152671755725,0.1450381679389313,-0.19083969465648856,23.73
1.0,-0.0794677734375,0.154052734375,0.99468994140625,0.16793893129770993,-0.08396946564885496,-0.13740458015267176,23.78
1.0,-0.0789794921875,0.14892578125,0.98785400390625,0.09923664122137404,0.15267175572519084,-0.20610687022900764,23.68
1.0,-0.0826416015625,0.14697265625,0.98419189453125,0.10687022900763359,0.1450381679389313,0.15267175572519084,23.73
1.0,-0.0870361328125,0.154052734375,0.98028564453125,0.183206106870229,-0.015267175572519083,-0.16793893129770993,23.64
1.0,-0.0867919921875,0.14990234375,0.97857666015625,0.19083969465648856,-0.061068702290076333,-0.04580152671755725,23.73
1.0,-0.0855712890625,0.15380859375,0.98272705078125,0.06870229007633588,-0.007633587786259542,0.08396946564885496,23.78
1.0,-0.0787353515625,0.15185546875,0.99420166015625,0.13740458015267176,0.25190839694656486,-0.015267175572519083,23.68
1.0,-0.0833740234375,0.154296875,0.98150634765625,-0.007633587786259542,0.07633587786259542,0.22137404580152673,23.82
1.0,-0.0887451171875,0.152587890625,0.98101806640625,0.29770992366412213,0.08396946564885496,0.03816793893129771,23.73
1.0,-0.0914306640625,0.15087890625,0.98370361328125,0.183206106870229,-0.030534351145038167,0.03816793893129771,23.78
1.0,-0.0816650390625,0.150634765625,0.97857666015625,0.19083969465648856,0.29770992366412213,0.0,23.73
1.0,-0.0843505859375,0.150390625,0.98419189453125,0.20610687022900764,0.3511450381679389,-0.1450381679389313,23.73
1.0,-0.0845947265625,0.1494140625,0.98394775390625,0.183206106870229,0.11450381679389313,0.015267175572519083,23.82
1.0,-0.0885009765625,0.156982421875,0.98345947265625,0.007633587786259542,0.16030534351145037,0.1450381679389313,23.87
1.0,-0.0865478515625,0.1474609375,0.98101806640625,0.1984732824427481,0.29770992366412213,0.05343511450381679,23.73
1.0,-0.0853271484375,0.156005859375,0.98150634765625,0.19083969465648856,0.20610687022900764,-0.09923664122137404,23.73
1.0,-0.0762939453125,0.147705078125,0.98370361328125,-0.022900763358778626,0.13740458015267176,0.03816793893129771,23.68
1.0,-0.0794677734375,0.142333984375,0.97808837890625,0.1297709923664122,0.0916030534351145,0.08396946564885496,23.78
1.0,-0.0826416015625,0.148193359375,0.98223876953125,0.09923664122137404,0.22900763358778625,-0.0916030534351145,23.73
1.0,-0.0821533203125,0.14892578125,0.98248291015625,0.1450381679389313,0.2824427480916031,0.04580152671755725,23.73
1.0,-0.0767822265625,0.1474609375,0.98736572265625,-0.022900763358778626,0.17557251908396945,0.07633587786259542,23.68
1.0,-0.0831298828125,0.155517578125,0.98419189453125,0.183206106870229,0.31297709923664124,-0.06870229007633588,23.78
1.0,-0.0848388671875,0.147705078125,0.97857666015625,0.21374045801526717,0.2595419847328244,0.015267175572519083,23.73
1.0,-0.0860595703125,0.15087890625,0.98272705078125,0.183206106870229,0.22137404580152673,-0.061068702290076333,23.68
1.0,-0.0863037109375,0.14892578125,0.98541259765625,0.12213740458015267,-0.05343511450381679,-0.15267175572519084,23.78
1.0,-0.0870361328125,0.161376953125,0.98272705078125,0.09923664122137404,0.26717557251908397,-0.1297709923664122,23.68
1.0,-0.0799560546875,0.147705078125,0.98565673828125,0.29770992366412213,0.3435114503816794,0.05343511450381679,23.73
1.0,-0.0855712890625,0.1533203125,0.97882080078125,0.25190839694656486,0.13740458015267176,0.015267175572519083,23.73
1.0,-0.0867919921875,0.148681640625,0.98638916015625,0.366412213740458,0.1984732824427481,0.08396946564885496,23.78
1.0,-0.0838623046875,0.157958984375,0.98126220703125,0.183206106870229,0.183206106870229,0.06870229007633588,23.68
1.0,-0.0806884765625,0.146728515625,0.97833251953125,0.13740458015267176,0.15267175572519084,-0.03816793893129771,23.73
1.0,-0.0750732421875,0.145751953125,0.98199462890625,0.1984732824427481,0.16793893129770993,0.12213740458015267,23.82
1.0,-0.0853271484375,0.14990234375,0.98638916015625,0.1297709923664122,0.16793893129770993,0.022900763358778626,23.78
1.0,-0.0804443359375,0.151123046875,0.98492431640625,0.21374045801526717,0.16030534351145037,0.061068702290076333,23.78
1.0,-0.0809326171875,0.14599609375,0.98492431640625,0.2595419847328244,0.24427480916030533,-0.15267175572519084,23.73
1.0,-0.0902099609375,0.148681640625,0.97955322265625,0.19083969465648856,0.04580152671755725,-0.061068702290076333,23.82
1.0,-0.0806884765625,0.146484375,0.97833251953125,0.0916030534351145,0.2366412213740458,0.022900763358778626,23.68
1.0,-0.0828857421875,0.15380859375,0.98931884765625,0.17557251908396945,0.12213740458015267,0.0916030534351145,23.68
1.0,-0.0875244140625,0.1533203125,0.98175048828125,0.2748091603053435,0.4351145038167939,-0.11450381679389313,23.73
1.0,-0.0863037109375,0.146240234375,0.97857666015625,0.2900763358778626,0.12213740458015267,-0.022900763358778626,23.73
1.0,-0.0860595703125,0.15234375,0.98516845703125,0.08396946564885496,0.32061068702290074,0.061068702290076333,23.78
1.0,-0.0894775390625,0.14794921875,0.99005126953125,0.183206106870229,0.13740458015267176,0.05343511450381679,23.68
1.0,-0.0794677734375,0.15234375,0.97930908203125,0.030534351145038167,0.2595419847328244,-0.1984732824427481,23.73
1.0,-0.0836181640625,0.148681640625,0.98492431640625,0.10687022900763359,0.09923664122137404,-0.13740458015267176,23.73
1.0,-0.0760498046875,0.1513671875,0.99200439453125,0.022900763358778626,0.06870229007633588,-0.061068702290076333,23.78
1.0,-0.0863037109375,0.15625,0.98272705078125,0.22137404580152673,0.13740458015267176,-0.030534351145038167,23.68
1.0,-0.0853271484375,0.155517578125,0.98297119140625,0.21374045801526717,0.1297709923664122,0.09923664122137404,23.82
1.0,-0.0787353515625,0.148681640625,0.98101806640625,0.19083969465648856,0.24427480916030533,-0.15267175572519084,23.87
1.0,-0.0855712890625,0.149658203125,0.98883056640625,0.24427480916030533,0.16793893129770993,0.08396946564885496,23.87
1.0,-0.0826416015625,0.150634765625,0.97833251953125,0.22137404580152673,0.09923664122137404,0.015267175572519083,23.68
1.0,-0.0823974609375,0.149169921875,0.97760009765625,0.20610687022900764,0.0,0.03816793893129771,23.73
1.0,-0.0850830078125,0.1533203125,0.98614501953125,0.13740458015267176,0.10687022900763359,-0.12213740458015267,23.73
1.0,-0.0819091796875,0.15283203125,0.98321533203125,0.10687022900763359,0.17557251908396945,0.030534351145038167,23.78
1.0,-0.0894775390625,0.157958984375,0.98541259765625,0.007633587786259542,0.16793893129770993,-0.06870229007633588,23.68
1.0,-0.0802001953125,0.15283203125,0.98565673828125,0.06870229007633588,0.2366412213740458,0.03816793893129771,23.73
1.0,-0.0816650390625,0.15625,0.97393798828125,0.05343511450381679,0.25190839694656486,-0.17557251908396945,23.78
1.0,-0.0865478515625,0.147705078125,0.98638916015625,0.1450381679389313,0.25190839694656486,-0.0916030534351145,23.68
1.0,-0.0821533203125,0.1513671875,0.98858642578125,0.06870229007633588,0.20610687022900764,0.05343511450381679,23.73
1.0,-0.0875244140625,0.150390625,0.98590087890625,0.08396946564885496,0.2748091603053435,0.061068702290076333,23.78
1.0,-0.0836181640625,0.149658203125,0.97369384765625,0.22137404580152673,0.022900763358778626,0.0,23.68
1.0,-0.0841064453125,0.1552734375,0.98858642578125,0.19083969465648856,0.1984732824427481,-0.12213740458015267,23.68
1.0,-0.0911865234375,0.1484375,0.98443603515625,0.12213740458015267,0.29770992366412213,0.0,23.73
1.0,-0.0792236328125,0.150390625,0.99151611328125,0.05343511450381679,0.11450381679389313,-0.15267175572519084,23.78
1.0,-0.0887451171875,0.1494140625,0.97833251953125,0.022900763358778626,0.13740458015267176,-0.09923664122137404,23.78
1.0,-0.0887451171875,0.1494140625,0.98760986328125,0.1984732824427481,-0.015267175572519083,-0.10687022900763359,23.78
1.0,-0.0845947265625,0.14794921875,0.98199462890625,0.030534351145038167,0.16793893129770993,0.07633587786259542,23.73
1.0,-0.0858154296875,0.14794921875,0.98150634765625,0.16030534351145037,0.40458015267175573,0.10687022900763359,23.73
1.0,-0.0819091796875,0.150146484375,0.98223876953125,0.19083969465648856,0.17557251908396945,0.03816793893129771,23.78
1.0,-0.0850830078125,0.148681640625,0.97955322265625,0.19083969465648856,0.2595419847328244,0.04580152671755725,23.68
1.0,-0.0887451171875,0.1435546875,0.98101806640625,0.08396946564885496,0.20610687022900764,-0.030534351145038167,23.64
1.0,-0.0828857421875,0.154296875,0.97711181640625,0.24427480916030533,0.25190839694656486,-0.030534351145038167,23.78
1.0,-0.0885009765625,0.151611328125,0.98321533203125,0.21374045801526717,0.31297709923664124,0.007633587786259542,23.78
1.0,-0.0833740234375,0.1494140625,0.98077392578125,0.16030534351145037,0.16793893129770993,0.04580152671755725,23.78
1.0,-0.0794677734375,0.144775390625,0.98248291015625,0.19083969465648856,0.1297709923664122,-0.08396946564885496,23.73
1.0,-0.0833740234375,0.1494140625,0.98345947265625,0.07633587786259542,0.0916030534351145,-0.07633587786259542,23.82
1.0,-0.0850830078125,0.155517578125,0.98175048828125,0.16793893129770993,0.022900763358778626,0.015267175572519083,23.68
1.0,-0.0865478515625,0.153076171875,0.97760009765625,0.2824427480916031,0.0916030534351145,-0.17557251908396945,23.68
1.0,-0.0782470703125,0.150634765625,0.98468017578125,0.15267175572519084,0.0916030534351145,0.08396946564885496,23.82
1.0,-0.0814208984375,0.153076171875,0.98614501953125,0.16793893129770993,0.183206106870229,-0.015267175572519083,23.73
1.0,-0.0802001953125,0.154052734375,0.98028564453125,0.15267175572519084,0.22900763358778625,0.015267175572519083,23.68
1.0,-0.0841064453125,0.15234375,0.99591064453125,0.2748091603053435,0.1297709923664122,-0.015267175572519083,23.68
1.0,-0.0858154296875,0.147216796875,0.97857666015625,0.05343511450381679,0.10687022900763359,-0.03816793893129771,23.82
1.0,-0.0850830078125,0.155029296875,0.98272705078125,0.2595419847328244,0.1297709923664122,-0.1984732824427481,23.64
1.0,-0.0823974609375,0.1474609375,0.98370361328125,0.13740458015267176,0.17557251908396945,-0.0916030534351145,23.78
1.0,-0.0843505859375,0.147705078125,0.98492431640625,0.22137404580152673,0.15267175572519084,0.04580152671755725,23.68
1.0,-0.0789794921875,0.1513671875,0.98565673828125,0.1297709923664122,0.06870229007633588,-0.1450381679389313,23.73
1.0,-0.0845947265625,0.1513671875,0.98492431640625,0.19083969465648856,0.16030534351145037,-0.03816793893129771,23.73
1.0,-0.0828857421875,0.151611328125,0.98419189453125,0.1297709923664122,0.32061068702290074,-0.030534351145038167,23.87
1.0,-0.0848388671875,0.14599609375,0.98590087890625,0.29770992366412213,0.19083969465648856,-0.16030534351145037,23.78
1.0,-0.0848388671875,0.152587890625,0.98614501953125,0.29770992366412213,0.16030534351145037,0.1450381679389313,23.73
1.0,-0.0880126953125,0.14111328125,0.98297119140625,0.1450381679389313,0.16793893129770993,-0.07633587786259542,23.73
1.0,-0.0850830078125,0.1513671875,0.98150634765625,0.1984732824427481,-0.030534351145038167,-0.007633587786259542,23.68
1.0,-0.0806884765625,0.150390625,0.97344970703125,0.2595419847328244,-0.015267175572519083,-0.20610687022900764,23.78
1.0,-0.0802001953125,0.14892578125,0.98663330078125,0.24427480916030533,0.12213740458015267,0.19083969465648856,23.78
1.0,-0.0814208984375,0.15185546875,0.98443603515625,0.1984732824427481,0.16030534351145037,0.05343511450381679,23.73
1.0,-0.0828857421875,0.155029296875,0.98443603515625,0.2824427480916031,0.2748091603053435,-0.03816793893129771,23.82
1.0,-0.0823974609375,0.156005859375,0.98175048828125,0.16793893129770993,0.0916030534351145,0.08396946564885496,23.68
1.0,-0.0814208984375,0.150634765625,0.98687744140625,0.2366412213740458,0.06870229007633588,-0.03816793893129771,23.68
1.0,-0.0802001953125,0.1484375,0.99371337890625,0.061068702290076333,0.15267175572519084,-0.25190839694656486,23.73
1.0,-0.0833740234375,0.149169921875,0.97344970703125,0.07633587786259542,-0.022900763358778626,0.08396946564885496,23.68
1.0,-0.0858154296875,0.1474609375,0.98712158203125,0.1450381679389313,0.16793893129770993,-0.07633587786259542,23.78
1.0,-0.0794677734375,0.1572265625,0.97418212890625,0.022900763358778626,0.09923664122137404,0.04580152671755725,23.78
1.0,-0.0809326171875,0.152587890625,0.97906494140625,0.08396946564885496,0.12213740458015267,0.022900763358778626,23.73
1.0,-0.0833740234375,0.15283203125,0.97906494140625,0.22137404580152673,0.07633587786259542,-0.04580152671755725,23.68
1.0,-0.0855712890625,0.14892578125,0.98052978515625,0.1450381679389313,0.0,0.03816793893129771,23.78
1.0,-0.0870361328125,0.149658203125,0.97979736328125,0.061068702290076333,0.09923664122137404,-0.1984732824427481,23.73
1.0,-0.0850830078125,0.15234375,0.98516845703125,0.15267175572519084,0.2366412213740458,-0.0916030534351145,23.73
1.0,-0.0838623046875,0.150634765625,0.97833251953125,0.015267175572519083,0.31297709923664124,0.11450381679389313,23.78
1.0,-0.0828857421875,0.15869140625,0.98345947265625,0.12213740458015267,0.1297709923664122,0.022900763358778626,23.78
1.0,-0.0892333984375,0.14697265625,0.98834228515625,0.13740458015267176,0.21374045801526717,-0.22900763358778625,23.73
1.0,-0.0853271484375,0.14794921875,0.98736572265625,0.03816793893129771,0.3053435114503817,0.07633587786259542,23.73
1.0,-0.0826416015625,0.147216796875,0.98248291015625,-0.022900763358778626,0.2366412213740458,0.07633587786259542,23.78
1.0,-0.0780029296875,0.1513671875,0.97808837890625,0.06870229007633588,0.007633587786259542,-0.16030534351145037,23.78
1.0,-0.0816650390625,0.152587890625,0.98150634765625,0.12213740458015267,0.22900763358778625,-0.030534351145038167,23.73
1.0,-0.0831298828125,0.1455078125,0.98785400390625,0.1450381679389313,0.04580152671755725,-0.31297709923664124,23.64
1.0,-0.0853271484375,0.15234375,0.98541259765625,0.16030534351145037,0.0916030534351145,-0.015267175572519083,23.78
1.0,-0.0872802734375,0.153076171875,0.97979736328125,0.0916030534351145,0.022900763358778626,-0.06870229007633588,23.68
1.0,-0.0833740234375,0.147216796875,0.98443603515625,0.183206106870229,0.1984732824427481,-0.007633587786259542,23.82
1.0,-0.0826416015625,0.149169921875,0.97833251953125,0.15267175572519084,0.16793893129770993,-0.05343511450381679,23.78
1.0,-0.0841064453125,0.146728515625,0.98126220703125,0.2366412213740458,0.35877862595419846,-0.16793893129770993,23.78
1.0,-0.0811767578125,0.15380859375,0.99005126953125,0.25190839694656486,0.31297709923664124,0.10687022900763359,23.68
1.0,-0.0870361328125,0.155517578125,0.98809814453125,0.0916030534351145,0.1984732824427481,-0.022900763358778626,23.82
1.0,-0.0789794921875,0.156005859375,0.98004150390625,0.1297709923664122,0.08396946564885496,-0.13740458015267176,23.78
1.0,-0.0794677734375,0.14990234375,0.98760986328125,0.030534351145038167,0.022900763358778626,-0.061068702290076333,23.87
1.0,-0.0775146484375,0.148193359375,0.97686767578125,0.09923664122137404,0.0916030534351145,-0.05343511450381679,23.78
1.0,-0.0836181640625,0.150390625,0.97711181640625,0.25190839694656486,0.29770992366412213,0.03816793893129771,23.73
1.0,-0.0841064453125,0.1513671875,0.98101806640625,0.1450381679389313,0.21374045801526717,-0.11450381679389313,23.73
1.0,-0.0828857421875,0.1494140625,0.98345947265625,0.31297709923664124,0.22137404580152673,0.030534351145038167,23.78
1.0,-0.0833740234375,0.1552734375,0.98931884765625,0.1297709923664122,0.11450381679389313,0.03816793893129771,23.68
1.0,-0.0855712890625,0.144775390625,0.98394775390625,0.35877862595419846,0.2595419847328244,0.015267175572519083,23.73
1.0,-0.0799560546875,0.148193359375,0.98785400390625,0.15267175572519084,0.183206106870229,0.06870229007633588,23.73
1.0,-0.0782470703125,0.152099609375,0.98150634765625,0.16030534351145037,-0.03816793893129771,0.03816793893129771,23.78
1.0,-0.0858154296875,0.147705078125,0.98419189453125,0.1297709923664122,0.37404580152671757,-0.32061068702290074,23.82
1.0,-0.0843505859375,0.148681640625,0.98883056640625,-0.015267175572519083,0.26717557251908397,-0.10687022900763359,23.73
1.0,-0.0858154296875,0.154541015625,0.98809814453125,0.007633587786259542,0.04580152671755725,-0.061068702290076333,23.73
1.0,-0.0826416015625,0.154296875,0.98321533203125,0.16793893129770993,0.29770992366412213,-0.04580152671755725,23.68
1.0,-0.0787353515625,0.151611328125,0.98931884765625,0.2595419847328244,0.26717557251908397,-0.12213740458015267,23.73
1.0,-0.0826416015625,0.147705078125,0.98541259765625,0.3282442748091603,0.2748091603053435,0.007633587786259542,23.73
1.0,-0.0841064453125,0.148681640625,0.98297119140625,0.2595419847328244,0.17557251908396945,-0.09923664122137404,23.73
1.0,-0.0860595703125,0.150146484375,0.97906494140625,0.12213740458015267,0.13740458015267176,-0.11450381679389313,23.78
1.0,-0.0802001953125,0.15234375,0.99249267578125,0.015267175572519083,0.2595419847328244,-0.09923664122137404,23.78
1.0,-0.0799560546875,0.147705078125,0.97882080078125,0.030534351145038167,0.20610687022900764,-0.015267175572519083,23.73
1.0,-0.0841064453125,0.15283203125,0.97955322265625,0.015267175572519083,0.22137404580152673,-0.04580152671755725,23.73
1.0,-0.0855712890625,0.1474609375,0.98541259765625,0.061068702290076333,0.030534351145038167,0.12213740458015267,23.68
1.0,-0.0772705078125,0.156982421875,0.98004150390625,0.15267175572519084,0.07633587786259542,-0.0916030534351145,23.73
1.0,-0.0823974609375,0.150634765625,0.97906494140625,0.10687022900763359,0.03816793893129771,0.15267175572519084,23.73
1.0,-0.0877685546875,0.151123046875,0.97833251953125,0.2366412213740458,0.16030534351145037,0.10687022900763359,23.73
1.0,-0.0865478515625,0.150634765625,0.97637939453125,0.10687022900763359,0.3053435114503817,-0.06870229007633588,23.78
1.0,-0.0867919921875,0.1513671875,0.98565673828125,0.22137404580152673,0.2595419847328244,-0.22900763358778625,23.68
1.0,-0.0877685546875,0.154541015625,0.98175048828125,0.22900763358778625,0.21374045801526717,-0.16030534351145037,23.73
1.0,-0.0858154296875,0.152587890625,0.98663330078125,0.20610687022900764,0.21374045801526717,-0.07633587786259542,23.73
1.0,-0.0792236328125,0.1513671875,0.97955322265625,0.24427480916030533,0.2595419847328244,-0.04580152671755725,23.78
1.0,-0.0821533203125,0.156494140625,0.98980712890625,0.22900763358778625,0.061068702290076333,-0.05343511450381679,23.78
1.0,-0.0843505859375,0.15283203125,0.98468017578125,-0.05343511450381679,0.1450381679389313,0.06870229007633588,23.82
1.0,-0.0860595703125,0.15478515625,0.98199462890625,0.04580152671755725,0.061068702290076333,-0.1297709923664122,23.82
1.0,-0.0804443359375,0.1552734375,0.98663330078125,0.030534351145038167,0.366412213740458,0.022900763358778626,23.68
1.0,-0.0833740234375,0.149169921875,0.98858642578125,0.32061068702290074,0.22900763358778625,0.03816793893129771,23.68
1.0,-0.0802001953125,0.153076171875,0.99078369140625,0.1984732824427481,0.15267175572519084,0.015267175572519083,23.73
1.0,-0.0823974609375,0.15185546875,0.98004150390625,0.31297709923664124,0.32061068702290074,-0.06870229007633588,23.87
1.0,-0.0784912109375,0.156982421875,0.98101806640625,0.17557251908396945,0.04580152671755725,0.015267175572519083,23.78
1.0,-0.0838623046875,0.155517578125,0.98370361328125,0.2366412213740458,0.0,-0.09923664122137404,23.82
1.0,-0.0867919921875,0.149658203125,0.98077392578125,0.16793893129770993,0.3893129770992366,-0.022900763358778626,23.73
1.0,-0.0860595703125,0.148681640625,0.98321533203125,0.26717557251908397,0.17557251908396945,-0.16030534351145037,23.78
1.0,-0.0848388671875,0.15478515625,0.98394775390625,0.22900763358778625,0.1450381679389313,0.07633587786259542,23.87
1.0,-0.0794677734375,0.15380859375,0.99078369140625,0.16030534351145037,0.31297709923664124,0.03816793893129771,23.82
1.0,-0.0845947265625,0.14794921875,0.98199462890625,0.1297709923664122,0.20610687022900764,-0.0916030534351145,23.78
1.0,-0.0841064453125,0.152587890625,0.97760009765625,0.11450381679389313,0.33587786259541985,-0.007633587786259542,23.78
1.0,-0.0899658203125,0.155029296875,0.98223876953125,0.2595419847328244,0.07633587786259542,0.0916030534351145,23.68
1.0,-0.0848388671875,0.153076171875,0.98638916015625,0.12213740458015267,0.030534351145038167,0.022900763358778626,23.73
1.0,-0.0853271484375,0.1513671875,0.98516845703125,0.15267175572519084,0.16793893129770993,-0.015267175572519083,23.82
1.0,-0.0833740234375,0.149658203125,0.98834228515625,0.2366412213740458,0.20610687022900764,-0.03816793893129771,23.78
1.0,-0.0855712890625,0.156494140625,0.98492431640625,0.13740458015267176,0.0916030534351145,0.007633587786259542,23.78
1.0,-0.0809326171875,0.14990234375,0.97784423828125,0.24427480916030533,0.1984732824427481,-0.13740458015267176,23.82
1.0,-0.0833740234375,0.148681640625,0.98101806640625,0.1297709923664122,0.183206106870229,-0.16030534351145037,23.82
1.0,-0.0860595703125,0.15185546875,0.98370361328125,0.21374045801526717,0.0,0.09923664122137404,23.78
1.0,-0.0828857421875,0.149658203125,0.98956298828125,0.24427480916030533,0.2900763358778626,-0.04580152671755725,23.78
1.0,-0.0806884765625,0.155517578125,0.98638916015625,0.13740458015267176,0.35877862595419846,-0.06870229007633588,23.73
1.0,-0.0804443359375,0.1513671875,0.97833251953125,0.22137404580152673,0.1984732824427481,0.022900763358778626,23.82
1.0,-0.0855712890625,0.150634765625,0.98907470703125,0.12213740458015267,0.2748091603053435,-0.0916030534351145,23.68
1.0,-0.0848388671875,0.15234375,0.98687744140625,0.10687022900763359,0.2595419847328244,-0.08396946564885496,23.87
1.0,-0.0838623046875,0.150390625,0.99224853515625,0.10687022900763359,0.35877862595419846,-0.030534351145038167,23.82
1.0,-0.0855712890625,0.15380859375,0.97808837890625,0.31297709923664124,0.007633587786259542,0.07633587786259542,23.73
1.0,-0.0860595703125,0.15185546875,0.98394775390625,0.17557251908396945,0.19083969465648856,-0.022900763358778626,23.68
1.0,-0.0855712890625,0.1494140625,0.98223876953125,0.31297709923664124,0.3511450381679389,0.16030534351145037,23.78
1.0,-0.0814208984375,0.1513671875,0.98712158203125,0.0916030534351145,0.20610687022900764,0.061068702290076333,23.73
1.0,-0.0799560546875,0.151611328125,0.98492431640625,0.29770992366412213,0.15267175572519084,-0.03816793893129771,23.73
1.0,-0.0833740234375,0.150146484375,0.97271728515625,-0.0916030534351145,0.15267175572519084,-0.015267175572519083,23.68
1.0,-0.0894775390625,0.1513671875,0.97906494140625,0.2366412213740458,0.16030534351145037,0.06870229007633588,23.78
1.0,-0.0821533203125,0.14990234375,0.99200439453125,0.16793893129770993,0.2748091603053435,0.12213740458015267,23.73
1.0,-0.0811767578125,0.151123046875,0.97784423828125,0.17557251908396945,0.12213740458015267,0.06870229007633588,23.73
1.0,-0.0833740234375,0.152099609375,0.98858642578125,0.08396946564885496,0.16030534351145037,-0.1450381679389313,23.68
1.0,-0.0855712890625,0.1494140625,0.97930908203125,0.13740458015267176,0.12213740458015267,0.0,23.68
1.0,-0.0816650390625,0.15673828125,0.98834228515625,0.0916030534351145,0.15267175572519084,-0.03816793893129771,23.73
1.0,-0.0858154296875,0.14892578125,0.97930908203125,0.22900763358778625,-0.061068702290076333,-0.19083969465648856,23.73
1.0,-0.0826416015625,0.150390625,0.97320556640625,0.20610687022900764,0.3053435114503817,-0.08396946564885496,23.73
1.0,-0.0806884765625,0.154052734375,0.98297119140625,0.19083969465648856,-0.04580152671755725,-0.16030534351145037,23.87
1.0,-0.0872802734375,0.152587890625,0.98638916015625,0.37404580152671757,-0.11450381679389313,-0.22900763358778625,23.78
1.0,-0.0853271484375,0.15576171875,0.98858642578125,0.16030534351145037,0.16793893129770993,-0.007633587786259542,23.73
1.0,-0.0831298828125,0.157470703125,0.98687744140625,0.26717557251908397,0.05343511450381679,0.11450381679389313,23.82
1.0,-0.0848388671875,0.14501953125,0.98101806640625,0.1450381679389313,0.10687022900763359,-0.022900763358778626,23.68
1.0,-0.0892333984375,0.14111328125,0.98028564453125,0.3282442748091603,0.05343511450381679,-0.061068702290076333,23.78
1.0,-0.0753173828125,0.142822265625,0.98370361328125,-0.05343511450381679,0.2748091603053435,-0.05343511450381679,23.73
1.0,-0.0750732421875,0.153076171875,0.99493408203125,0.26717557251908397,0.32061068702290074,-0.13740458015267176,23.73
1.0,-0.0816650390625,0.15185546875,0.98028564453125,0.26717557251908397,0.33587786259541985,0.05343511450381679,23.78
1.0,-0.0838623046875,0.155517578125,0.98443603515625,0.2366412213740458,0.10687022900763359,-0.1450381679389313,23.78
1.0,-0.0848388671875,0.15185546875,0.98712158203125,0.2366412213740458,0.12213740458015267,0.0916030534351145,23.68
1.0,-0.0809326171875,0.15185546875,0.98736572265625,-0.12213740458015267,0.05343511450381679,-0.061068702290076333,23.73
1.0,-0.0836181640625,0.15380859375,0.98150634765625,0.20610687022900764,0.12213740458015267,0.061068702290076333,23.82
1.0,-0.0885009765625,0.154052734375,0.98394775390625,0.061068702290076333,0.0916030534351145,-0.015267175572519083,23.87
1.0,-0.0858154296875,0.1533203125,0.98272705078125,0.19083969465648856,0.08396946564885496,0.19083969465648856,23.82
1.0,-0.0811767578125,0.151123046875,0.98565673828125,0.015267175572519083,0.2900763358778626,0.05343511450381679,23.82
1.0,-0.0833740234375,0.15185546875,0.98126220703125,0.07633587786259542,0.08396946564885496,-0.061068702290076333,23.78
1.0,-0.0821533203125,0.14892578125,0.98638916015625,0.1984732824427481,0.08396946564885496,0.11450381679389313,23.78
1.0,-0.0821533203125,0.148193359375,0.97955322265625,0.183206106870229,0.24427480916030533,-0.08396946564885496,23.73
1.0,-0.0775146484375,0.15234375,0.98492431640625,0.2900763358778626,0.4351145038167939,-0.08396946564885496,23.82
1.0,-0.0836181640625,0.148681640625,0.98809814453125,0.20610687022900764,0.2900763358778626,-0.0916030534351145,23.73
1.0,-0.0836181640625,0.150390625,0.97418212890625,0.20610687022900764,0.03816793893129771,-0.0916030534351145,23.78
1.0,-0.0887451171875,0.15234375,0.99371337890625,-0.0916030534351145,0.25190839694656486,0.19083969465648856,23.78
1.0,-0.0850830078125,0.1494140625,0.98492431640625,0.0,0.1297709923664122,0.015267175572519083,23.73
1.0,-0.0914306640625,0.14697265625,0.98223876953125,0.33587786259541985,0.0916030534351145,0.0,23.78
1.0,-0.0850830078125,0.15478515625,0.97540283203125,0.022900763358778626,0.12213740458015267,-0.03816793893129771,23.78
1.0,-0.0841064453125,0.1533203125,0.99176025390625,0.015267175572519083,0.183206106870229,0.0,23.73
1.0,-0.0841064453125,0.1513671875,0.99029541015625,0.07633587786259542,0.20610687022900764,-0.06870229007633588,23.78
1.0,-0.0804443359375,0.154052734375,0.98419189453125,0.29770992366412213,0.3053435114503817,0.030534351145038167,23.78
1.0,-0.0811767578125,0.14697265625,0.98468017578125,0.1450381679389313,0.16030534351145037,0.07633587786259542,23.78
1.0,-0.0811767578125,0.150634765625,0.98370361328125,0.03816793893129771,0.25190839694656486,0.09923664122137404,23.64
1.0,-0.0802001953125,0.145751953125,0.98394775390625,0.2595419847328244,0.31297709923664124,-0.12213740458015267,23.73
1.0,-0.0814208984375,0.15234375,0.97515869140625,0.09923664122137404,0.2366412213740458,-0.09923664122137404,23.78
1.0,-0.0855712890625,0.148681640625,0.98223876953125,0.12213740458015267,0.022900763358778626,0.030534351145038167,23.78
1.0,-0.0882568359375,0.151611328125,0.98126220703125,0.16793893129770993,0.16793893129770993,0.007633587786259542,23.82
1.0,-0.0872802734375,0.156494140625,0.97955322265625,0.0,0.16793893129770993,0.030534351145038167,23.82
1.0,-0.0885009765625,0.152587890625,0.97735595703125,0.24427480916030533,0.05343511450381679,-0.12213740458015267,23.87
1.0,-0.0853271484375,0.153076171875,0.98004150390625,0.22137404580152673,0.15267175572519084,-0.05343511450381679,23.82
1.0,-0.0819091796875,0.149169921875,0.99591064453125,0.12213740458015267,0.11450381679389313,-0.007633587786259542,23.82
1.0,-0.0780029296875,0.154296875,0.98931884765625,0.13740458015267176,0.1450381679389313,-0.0916030534351145,23.78
1.0,-0.0799560546875,0.1533203125,0.98077392578125,0.015267175572519083,0.05343511450381679,-0.0916030534351145,23.78
1.0,-0.0794677734375,0.15478515625,0.98663330078125,0.3053435114503817,0.33587786259541985,-0.10687022900763359,23.64
1.0,-0.0828857421875,0.150390625,0.98931884765625,0.19083969465648856,0.09923664122137404,-0.03816793893129771,23.82
1.0,-0.0799560546875,0.1513671875,0.98907470703125,0.22900763358778625,0.11450381679389313,-0.183206106870229,23.78
1.0,-0.0845947265625,0.153564453125,0.99468994140625,0.04580152671755725,0.25190839694656486,-0.24427480916030533,23.78
1.0,-0.0723876953125,0.14892578125,0.98809814453125,0.31297709923664124,0.06870229007633588,-0.12213740458015267,23.78
1.0,-0.0853271484375,0.1484375,0.97979736328125,0.20610687022900764,0.1297709923664122,0.07633587786259542,23.73
1.0,-0.0833740234375,0.152099609375,0.98077392578125,0.16793893129770993,0.19083969465648856,-0.15267175572519084,23.78
1.0,-0.0738525390625,0.156005859375,0.98858642578125,0.17557251908396945,0.2748091603053435,0.05343511450381679,23.68
1.0,-0.0821533203125,0.15625,0.98394775390625,0.0916030534351145,-0.05343511450381679,0.06870229007633588,23.82
1.0,-0.0819091796875,0.15576171875,0.98663330078125,0.3053435114503817,0.22137404580152673,0.015267175572519083,23.73
1.0,-0.0836181640625,0.154541015625,0.98785400390625,0.2366412213740458,0.061068702290076333,0.0,23.68
1.0,-0.0836181640625,0.1513671875,0.98150634765625,0.21374045801526717,0.29770992366412213,-0.07633587786259542,23.78
1.0,-0.0767822265625,0.149658203125,0.97637939453125,0.19083969465648856,0.04580152671755725,-0.022900763358778626,23.73
1.0,-0.0894775390625,0.1533203125,0.98272705078125,0.31297709923664124,0.03816793893129771,0.0,23.82
1.0,-0.0826416015625,0.150146484375,0.98760986328125,0.19083969465648856,0.20610687022900764,-0.0916030534351145,23.78
1.0,-0.0828857421875,0.1474609375,0.98687744140625,0.32061068702290074,0.2748091603053435,0.09923664122137404,23.73
1.0,-0.0855712890625,0.150634765625,0.98394775390625,0.1984732824427481,0.0916030534351145,-0.06870229007633588,23.82
1.0,-0.0802001953125,0.15087890625,0.98370361328125,0.05343511450381679,0.2824427480916031,0.015267175572519083,23.78
1.0,-0.0816650390625,0.147216796875,0.99078369140625,0.3511450381679389,0.22900763358778625,0.16030534351145037,23.78
1.0,-0.0853271484375,0.150390625,0.97979736328125,0.08396946564885496,0.3053435114503817,0.007633587786259542,23.82
1.0,-0.0814208984375,0.155517578125,0.97955322265625,0.29770992366412213,0.366412213740458,0.007633587786259542,23.73
1.0,-0.0838623046875,0.154296875,0.98248291015625,0.05343511450381679,0.33587786259541985,0.015267175572519083,23.78
1.0,-0.0811767578125,0.153076171875,0.98370361328125,0.21374045801526717,0.10687022900763359,-0.05343511450381679,23.82
1.0,-0.0767822265625,0.148681640625,0.98590087890625,0.16030534351145037,0.10687022900763359,-0.03816793893129771,23.73
1.0,-0.0823974609375,0.15185546875,0.98394775390625,0.16793893129770993,0.19083969465648856,-0.1450381679389313,23.73
1.0,-0.0863037109375,0.1455078125,0.98077392578125,0.2595419847328244,0.13740458015267176,0.007633587786259542,23.78
1.0,-0.0784912109375,0.152099609375,0.98980712890625,0.22137404580152673,0.24427480916030533,0.030534351145038167,23.78
1.0,-0.0838623046875,0.157958984375,0.97833251953125,0.29770992366412213,0.15267175572519084,-0.06870229007633588,23.73
1.0,-0.0860595703125,0.153564453125,0.98345947265625,0.25190839694656486,0.13740458015267176,0.04580152671755725,23.78
1.0,-0.0802001953125,0.15087890625,0.98712158203125,0.06870229007633588,-0.022900763358778626,-0.09923664122137404,23.78
1.0,-0.0826416015625,0.148681640625,0.97686767578125,0.20610687022900764,0.16793893129770993,0.04580152671755725,23.73
1.0,-0.0804443359375,0.1494140625,0.98785400390625,0.2824427480916031,0.2824427480916031,0.13740458015267176,23.73
1.0,-0.0865478515625,0.150146484375,0.98272705078125,0.2748091603053435,-0.030534351145038167,0.03816793893129771,23.78
1.0,-0.0841064453125,0.157470703125,0.98809814453125,0.16030534351145037,0.2366412213740458,0.022900763358778626,23.78
1.0,-0.0836181640625,0.150390625,0.99444580078125,0.1297709923664122,0.183206106870229,0.07633587786259542,23.73
1.0,-0.0826416015625,0.15087890625,0.98199462890625,0.6717557251908397,0.35877862595419846,0.25190839694656486,23.73
1.0,-0.0889892578125,0.14990234375,0.98004150390625,0.22137404580152673,0.40458015267175573,0.183206106870229,23.78
1.0,-0.0806884765625,0.149658203125,0.98028564453125,0.22900763358778625,0.4580152671755725,0.16030534351145037,23.78
1.0,-0.0821533203125,0.147705078125,0.98223876953125,0.4732824427480916,0.48854961832061067,0.12213740458015267,23.73
1.0,-0.0855712890625,0.15234375,0.99127197265625,0.3511450381679389,0.3282442748091603,0.2824427480916031,23.73
1.0,-0.0826416015625,0.1484375,0.97955322265625,0.3969465648854962,0.5343511450381679,0.11450381679389313,23.78
1.0,-0.0875244140625,0.156982421875,0.98468017578125,0.3435114503816794,0.6717557251908397,0.1297709923664122,23.68
1.0,-0.0823974609375,0.153076171875,0.98712158203125,0.22900763358778625,1.0687022900763359,-0.05343511450381679,23.73
1.0,-0.0914306640625,0.151123046875,0.99566650390625,0.022900763358778626,0.6259541984732825,-0.20610687022900764,23.82
1.0,-0.0826416015625,0.148193359375,0.97442626953125,-0.022900763358778626,0.15267175572519084,-0.3282442748091603,23.78
1.0,-0.0804443359375,0.15283203125,0.98321533203125,0.16030534351145037,0.648854961832061,-0.4961832061068702,23.68
1.0,-0.0775146484375,0.151123046875,0.99078369140625,0.11450381679389313,0.5267175572519084,-0.6106870229007634,23.82
1.0,-0.0836181640625,0.1494140625,0.97564697265625,0.10687022900763359,0.09923664122137404,-0.4351145038167939,23.82
1.0,-0.0775146484375,0.154541015625,0.98248291015625,0.1297709923664122,0.05343511450381679,-0.35877862595419846,23.68
1.0,-0.0780029296875,0.14404296875,0.98809814453125,0.08396946564885496,0.13740458015267176,-0.061068702290076333,23.78
1.0,-0.0797119140625,0.155517578125,0.99298095703125,0.19083969465648856,0.31297709923664124,-0.1450381679389313,23.78
1.0,-0.0853271484375,0.148193359375,0.98541259765625,0.03816793893129771,-0.5343511450381679,0.022900763358778626,23.64
1.0,-0.0755615234375,0.152099609375,0.98980712890625,0.04580152671755725,-0.42748091603053434,0.1297709923664122,23.73
1.0,-0.0809326171875,0.15283203125,0.98468017578125,0.26717557251908397,-0.007633587786259542,0.10687022900763359,23.78
1.0,-0.0838623046875,0.1513671875,0.98028564453125,0.32061068702290074,0.19083969465648856,0.09923664122137404,23.68
1.0,-0.0792236328125,0.148193359375,0.97686767578125,0.09923664122137404,-0.04580152671755725,0.16030534351145037,23.73
1.0,-0.0804443359375,0.152099609375,0.97637939453125,0.1450381679389313,-0.05343511450381679,0.13740458015267176,23.73
1.0,-0.0911865234375,0.159423828125,0.97979736328125,0.2824427480916031,0.4351145038167939,0.05343511450381679,23.78
1.0,-0.0836181640625,0.153564453125,0.98858642578125,0.3053435114503817,0.4732824427480916,-0.03816793893129771,23.82
1.0,-0.0921630859375,0.14599609375,0.99005126953125,0.42748091603053434,0.5038167938931297,-0.1297709923664122,23.82
1.0,-0.0928955078125,0.150634765625,0.98663330078125,0.22900763358778625,0.183206106870229,-0.061068702290076333,23.64
1.0,-0.0845947265625,0.144287109375,0.98028564453125,0.31297709923664124,0.2824427480916031,-0.13740458015267176,23.68
1.0,-0.0816650390625,0.1513671875,0.97320556640625,0.2366412213740458,0.07633587786259542,-0.10687022900763359,23.78
1.0,-0.0799560546875,0.1484375,0.98785400390625,0.21374045801526717,-0.16030534351145037,-0.03816793893129771,23.73
1.0,-0.0909423828125,0.151123046875,0.97686767578125,0.24427480916030533,-0.4351145038167939,-0.1450381679389313,23.73
1.0,-0.0863037109375,0.149658203125,0.98345947265625,0.21374045801526717,-0.6183206106870229,-0.37404580152671757,23.87
1.0,-0.0828857421875,0.15380859375,0.99395751953125,0.061068702290076333,-1.0610687022900764,-0.25190839694656486,23.87
1.0,-0.0858154296875,0.156982421875,0.98907470703125,0.183206106870229,-1.6946564885496183,0.007633587786259542,23.78
1.0,-0.0726318359375,0.154541015625,0.97979736328125,0.2595419847328244,-1.7099236641221374,-0.07633587786259542,23.64
1.0,-0.0748291015625,0.15087890625,0.97955322265625,0.48091603053435117,-0.04580152671755725,-0.07633587786259542,23.82
1.0,-0.0804443359375,0.157958984375,0.98297119140625,0.1984732824427481,0.6030534351145038,0.1450381679389313,23.73
1.0,-0.0794677734375,0.15087890625,0.98101806640625,0.3969465648854962,0.9083969465648855,0.08396946564885496,23.78
1.0,-0.0775146484375,0.150146484375,0.98150634765625,0.26717557251908397,2.3053435114503817,0.07633587786259542,23.87
1.0,-0.0909423828125,0.15478515625,0.98443603515625,0.366412213740458,2.4427480916030535,0.13740458015267176,23.73
1.0,-0.0911865234375,0.152099609375,0.98809814453125,0.3511450381679389,1.2213740458015268,0.42748091603053434,23.82
1.0,-0.0841064453125,0.1591796875,0.97760009765625,0.25190839694656486,0.030534351145038167,0.015267175572519083,23.92
1.0,-0.0880126953125,0.15283203125,0.99200439453125,-0.05343511450381679,0.2595419847328244,0.022900763358778626,23.78
1.0,-0.0855712890625,0.146728515625,0.97637939453125,0.29770992366412213,0.7022900763358778,-0.26717557251908397,23.73
1.0,-0.0931396484375,0.14990234375,0.97735595703125,0.08396946564885496,-0.13740458015267176,-0.15267175572519084,23.73
1.0,-0.0899658203125,0.148193359375,0.98565673828125,-0.0916030534351145,-0.6641221374045801,-0.1450381679389313,23.68
1.0,-0.0872802734375,0.1533203125,0.98858642578125,0.10687022900763359,-0.8244274809160306,-0.19083969465648856,23.78
1.0,-0.0806884765625,0.148193359375,0.98614501953125,0.20610687022900764,-0.4198473282442748,-0.2595419847328244,23.68
1.0,-0.0831298828125,0.15283203125,0.97906494140625,0.11450381679389313,0.2824427480916031,-0.15267175572519084,23.68
1.0,-0.0765380859375,0.155029296875,0.98931884765625,-0.09923664122137404,-0.16793893129770993,-0.183206106870229,23.73
1.0,-0.0770263671875,0.150634765625,0.98516845703125,-0.12213740458015267,0.007633587786259542,-0.42748091603053434,23.73
1.0,-0.0845947265625,0.1513671875,0.97491455078125,0.03816793893129771,0.061068702290076333,-0.33587786259541985,23.73
1.0,-0.0772705078125,0.15673828125,0.97833251953125,-0.022900763358778626,0.3969465648854962,-0.3282442748091603,23.78
1.0,-0.0858154296875,0.15625,0.97906494140625,0.3053435114503817,0.9083969465648855,-0.11450381679389313,23.78
1.0,-0.0819091796875,0.151123046875,0.98297119140625,0.17557251908396945,1.0458015267175573,-0.1297709923664122,23.73
1.0,-0.0792236328125,0.15087890625,0.98614501953125,0.183206106870229,0.48091603053435117,-0.007633587786259542,23.73
1.0,-0.0814208984375,0.148681640625,0.98345947265625,0.22137404580152673,0.2595419847328244,-0.16793893129770993,23.78
1.0,-0.0811767578125,0.149658203125,0.99615478515625,0.20610687022900764,0.4351145038167939,0.10687022900763359,23.78
1.0,-0.0775146484375,0.151123046875,0.97369384765625,0.17557251908396945,0.05343511450381679,-0.07633587786259542,23.78
1.0,-0.0836181640625,0.146240234375,0.98712158203125,0.3435114503816794,0.0916030534351145,0.1297709923664122,23.73
1.0,-0.0850830078125,0.149169921875,0.98614501953125,0.22900763358778625,-0.2748091603053435,0.03816793893129771,23.78
1.0,-0.0826416015625,0.15234375,0.97198486328125,0.10687022900763359,-0.1297709923664122,0.10687022900763359,23.78
1.0,-0.0816650390625,0.15380859375,0.98248291015625,0.183206106870229,-0.13740458015267176,0.030534351145038167,23.78
1.0,-0.0875244140625,0.1552734375,0.97930908203125,0.04580152671755725,-0.022900763358778626,-0.12213740458015267,23.82
1.0,-0.0863037109375,0.1533203125,0.98614501953125,0.022900763358778626,-0.007633587786259542,-0.06870229007633588,23.78
1.0,-0.0875244140625,0.1533203125,0.98223876953125,0.12213740458015267,0.04580152671755725,-0.0916030534351145,23.68
1.0,-0.0848388671875,0.147705078125,0.97637939453125,0.07633587786259542,0.03816793893129771,-0.12213740458015267,23.78
1.0,-0.0899658203125,0.150390625,0.97637939453125,0.16793893129770993,0.4961832061068702,-0.20610687022900764,23.73
1.0,-0.0880126953125,0.15283203125,0.97564697265625,0.13740458015267176,0.4198473282442748,-0.19083969465648856,23.73
1.0,-0.0867919921875,0.152587890625,0.97784423828125,0.19083969465648856,0.4580152671755725,-0.08396946564885496,23.78
1.0,-0.0855712890625,0.148193359375,0.98052978515625,-0.030534351145038167,0.5038167938931297,0.0,23.78
1.0,-0.0765380859375,0.146728515625,0.98052978515625,0.15267175572519084,0.3511450381679389,0.1984732824427481,23.73
1.0,-0.0816650390625,0.156982421875,0.96685791015625,0.4198473282442748,0.183206106870229,0.33587786259541985,23.73
1.0,-0.0816650390625,0.150146484375,0.98199462890625,0.4961832061068702,0.5648854961832062,0.5343511450381679,23.78
1.0,-0.0777587890625,0.15234375,0.98394775390625,0.40458015267175573,0.916030534351145,0.29770992366412213,23.68
1.0,-0.0928955078125,0.156005859375,0.98663330078125,0.366412213740458,0.5954198473282443,0.03816793893129771,23.73
1.0,-0.0902099609375,0.157958984375,0.99493408203125,-0.022900763358778626,0.015267175572519083,-0.09923664122137404,23.73
1.0,-0.0867919921875,0.159423828125,0.99224853515625,0.25190839694656486,-0.6870229007633588,-0.1984732824427481,23.78
1.0,-0.0799560546875,0.1552734375,0.97564697265625,0.03816793893129771,-0.35877862595419846,0.007633587786259542,23.78
1.0,-0.0731201171875,0.15771484375,0.97637939453125,0.2595419847328244,0.26717557251908397,-0.1984732824427481,23.73
1.0,-0.0845947265625,0.1552734375,0.97955322265625,0.12213740458015267,0.6717557251908397,-0.2366412213740458,23.73
1.0,-0.0750732421875,0.15478515625,0.98516845703125,0.16030534351145037,0.5725190839694656,-0.25190839694656486,23.87
1.0,-0.0855712890625,0.14892578125,0.97882080078125,0.3893129770992366,0.7862595419847328,-0.37404580152671757,23.68
1.0,-0.0853271484375,0.15576171875,0.97686767578125,0.3435114503816794,0.2366412213740458,-0.35877862595419846,23.78
1.0,-0.0823974609375,0.1474609375,0.98565673828125,0.366412213740458,0.22900763358778625,-0.29770992366412213,23.73
1.0,-0.0806884765625,0.148681640625,0.98907470703125,0.31297709923664124,0.2595419847328244,-0.5267175572519084,23.82
1.0,-0.0833740234375,0.1474609375,0.98101806640625,0.2748091603053435,0.07633587786259542,-0.5190839694656488,23.68
1.0,-0.0872802734375,0.14697265625,0.97833251953125,0.25190839694656486,-0.030534351145038167,-0.48854961832061067,23.78
1.0,-0.0855712890625,0.151611328125,0.98931884765625,0.16030534351145037,0.25190839694656486,-0.46564885496183206,23.82
1.0,-0.0819091796875,0.15478515625,0.97979736328125,0.3511450381679389,0.32061068702290074,-0.6106870229007634,23.73
1.0,-0.0855712890625,0.149658203125,0.98321533203125,0.12213740458015267,0.061068702290076333,-0.1297709923664122,23.73
1.0,-0.0863037109375,0.1552734375,0.97955322265625,0.20610687022900764,-0.015267175572519083,0.03816793893129771,23.78
1.0,-0.0811767578125,0.14892578125,0.98370361328125,0.04580152671755725,0.015267175572519083,-0.12213740458015267,23.78
1.0,-0.0772705078125,0.1533203125,0.97491455078125,-0.007633587786259542,0.3969465648854962,0.061068702290076333,23.64
1.0,-0.0816650390625,0.152587890625,0.97760009765625,0.12213740458015267,0.366412213740458,-0.022900763358778626,23.78
1.0,-0.0875244140625,0.1533203125,0.97882080078125,0.25190839694656486,0.11450381679389313,0.03816793893129771,23.68
1.0,-0.0816650390625,0.158935546875,0.98614501953125,0.3435114503816794,0.22900763358778625,0.1984732824427481,23.82
1.0,-0.0911865234375,0.153076171875,0.98419189453125,0.40458015267175573,0.31297709923664124,0.04580152671755725,23.82
1.0,-0.0894775390625,0.16064453125,0.99127197265625,0.11450381679389313,0.0916030534351145,0.2824427480916031,23.78
1.0,-0.0850830078125,0.151611328125,0.98052978515625,0.2595419847328244,0.1297709923664122,0.21374045801526717,23.68
1.0,-0.0845947265625,0.14453125,0.98834228515625,0.015267175572519083,-0.09923664122137404,0.32061068702290074,23.73
1.0,-0.0858154296875,0.149169921875,0.98931884765625,0.24427480916030533,0.8473282442748091,0.0,23.73
1.0,-0.0933837890625,0.15283203125,0.98150634765625,0.1984732824427481,0.4122137404580153,-0.12213740458015267,23.78
1.0,-0.0860595703125,0.15478515625,0.98175048828125,0.11450381679389313,0.29770992366412213,-0.26717557251908397,23.78
1.0,-0.0806884765625,0.161865234375,0.97955322265625,0.22900763358778625,-0.3511450381679389,-0.2824427480916031,23.73
1.0,-0.0867919921875,0.153564453125,0.98638916015625,0.1984732824427481,0.366412213740458,-0.2748091603053435,23.73
1.0,-0.0897216796875,0.14501953125,0.98101806640625,-0.22900763358778625,1.2595419847328244,-0.6870229007633588,23.82
1.0,-0.0758056640625,0.1572265625,0.99053955078125,0.08396946564885496,0.22137404580152673,-0.4961832061068702,23.68
1.0,-0.0899658203125,0.153076171875,0.97637939453125,0.08396946564885496,0.5725190839694656,-0.366412213740458,23.68
1.0,-0.0775146484375,0.155029296875,0.98394775390625,0.10687022900763359,0.2900763358778626,-0.007633587786259542,23.87
1.0,-0.0833740234375,0.154296875,0.98590087890625,0.2900763358778626,0.2595419847328244,-0.10687022900763359,23.82
1.0,-0.0833740234375,0.153076171875,0.98809814453125,0.0,0.05343511450381679,-0.12213740458015267,23.78
1.0,-0.0760498046875,0.142333984375,0.98199462890625,0.24427480916030533,-0.20610687022900764,0.1984732824427481,23.78
1.0,-0.0904541015625,0.14501953125,0.99200439453125,-0.1297709923664122,0.648854961832061,-0.20610687022900764,23.73
1.0,-0.0797119140625,0.154052734375,0.97491455078125,0.030534351145038167,-0.35877862595419846,0.3816793893129771,23.73
1.0,-0.0894775390625,0.153564453125,0.99078369140625,0.20610687022900764,0.5114503816793893,0.022900763358778626,23.73
1.0,-0.0645751953125,0.15576171875,0.99444580078125,-0.08396946564885496,-0.26717557251908397,-0.061068702290076333,23.78
1.0,-0.0870361328125,0.14404296875,0.99713134765625,0.6030534351145038,0.31297709923664124,-0.3435114503816794,23.68
1.0,-0.0975341796875,0.151611328125,0.99420166015625,-0.22900763358778625,-0.4732824427480916,0.0,23.73
1.0,-0.4078369140625,0.205078125,1.14239501953125,-9.633587786259541,-50.97709923664122,-7.641221374045801,23.73
1.0,-0.0584716796875,0.1396484375,1.02398681640625,-5.648854961832061,-67.5114503816794,-9.412213740458014,23.73
1.0,0.0284423828125,0.1416015625,0.85675048828125,-3.7480916030534353,-36.55725190839695,-10.045801526717558,23.73
1.0,0.1019287109375,0.15478515625,0.91583251953125,-2.1297709923664123,-10.694656488549619,-2.1297709923664123,23.78
1.0,-0.0211181640625,0.129150390625,0.95465087890625,1.1755725190839694,12.900763358778626,0.19083969465648856,23.82
1.0,-0.0455322265625,0.13916015625,0.99176025390625,0.4580152671755725,12.038167938931299,0.7022900763358778,23.78
1.0,-0.0206298828125,0.1357421875,1.00177001953125,2.7404580152671754,10.587786259541986,1.9541984732824427,23.78
1.0,0.0181884765625,0.15185546875,0.86285400390625,6.450381679389313,47.70992366412214,-0.9694656488549618,23.78
1.0,-0.0560302734375,0.154052734375,0.94757080078125,6.091603053435114,72.05343511450381,-1.5801526717557253,23.82
1.0,-0.1849365234375,0.157958984375,1.12652587890625,6.603053435114504,49.12977099236641,-1.0687022900763359,23.73
